onset	duration	trial_type	stop_signal_delay	response_time	response_accuracy	response_hand	sex
1.5136	0.5083	go	n/a	0.485	correct	right	female
5.5218	0.5083	go	n/a	0.606	correct	left	male
8.5301	0.5083	go	n/a	0.529	correct	left	male
13.0383	0.5083	succesful_stop	0.2	n/a	n/a	right	male
17.0465	0.5084	go	n/a	0.448	correct	right	female
20.0631	0.5083	succesful_stop	0.25	n/a	n/a	right	female
24.563	0.5083	unsuccesful_stop	0.3	0.488	correct	right	female
29.0712	0.5083	succesful_stop	0.35	n/a	n/a	right	female
33.5794	0.5084	go	n/a	0.53	correct	left	male
37.5877	0.5083	unsuccesful_stop	0.4	0.557	correct	right	female
41.5959	0.5083	go	n/a	0.845	correct	right	female
49.6123	0.5084	succesful_stop	0.45	n/a	n/a	right	female
53.6206	0.5083	go	n/a	0.837	correct	right	female
57.1288	0.5083	go	n/a	0.507	correct	left	male
61.637	0.5083	go	n/a	0.573	correct	left	male
65.6453	0.5083	go	n/a	0.984	correct	right	female
68.1619	0.5083	unsuccesful_stop	0.5	0.493	correct	left	male
76.1783	0.5083	succesful_stop	0.55	n/a	n/a	right	male
80.1865	0.5084	succesful_stop	0.6	n/a	n/a	right	female
84.6864	0.5083	go	n/a	0.802	correct	right	female
89.1946	0.5083	unsuccesful_stop	0.65	0.58	correct	left	male
92.2112	0.5083	succesful_stop	0.7	n/a	n/a	right	male
101.7193	0.5083	go	n/a	0.795	correct	right	female
105.2275	0.5084	go	n/a	0.819	correct	left	male
108.7358	0.5083	go	n/a	0.75	correct	right	female
113.744	0.5083	unsuccesful_stop	0.75	0.832	correct	left	male
117.7522	0.5083	go	n/a	1.3	correct	left	male
120.7605	0.5083	go	n/a	0.857	correct	left	male
124.7687	0.5083	go	n/a	1.383	correct	left	male
129.2769	0.5083	go	n/a	0.938	correct	left	male
133.2851	0.5083	go	n/a	0.972	correct	left	male
137.2934	0.5083	unsuccesful_stop	0.8	0.553	correct	right	female
144.3182	0.5083	go	n/a	0.842	correct	left	male
153.3263	0.5083	unsuccesful_stop	0.85	0.904	correct	left	male
157.3345	0.5083	unsuccesful_stop	0.9	0.939	correct	left	male
161.3427	0.5083	go	n/a	1.076	correct	right	female
165.8509	0.5083	unsuccesful_stop	0.9	0.96	correct	left	male
168.8592	0.5083	unsuccesful_stop	0.85	0.939	correct	right	female
172.3758	0.5083	go	n/a	1.2	correct	right	female
177.3756	0.5083	go	n/a	1.075	correct	right	female
181.8838	0.5084	go	n/a	1.065	correct	right	female
184.8921	0.5083	go	n/a	0.948	correct	right	female
188.9003	0.5083	succesful_stop	0.8	n/a	n/a	right	male
193.4085	0.5083	go	n/a	1.342	correct	left	male
197.9167	0.5084	go	n/a	1.193	correct	left	male
201.425	0.5083	go	n/a	0.838	correct	right	female
204.4416	0.5083	succesful_stop	0.75	n/a	n/a	right	female
208.4498	0.5083	succesful_stop	0.75	n/a	n/a	right	male
212.458	0.5083	go	n/a	1.364	correct	left	male
216.4663	0.5083	go	n/a	1.182	incorrect	left	female
220.9661	0.5084	go	n/a	0.829	correct	left	male
224.9744	0.5083	go	n/a	1.241	correct	left	male
228.9826	0.5083	go	n/a	0.946	correct	left	male
232.9908	0.5083	go	n/a	0.93	correct	left	male
236.5074	0.5083	go	n/a	1.07	correct	right	female
240.5156	0.5083	unsuccesful_stop	0.8	0.834	correct	right	female
245.0155	0.5083	go	n/a	1.169	correct	right	female
248.5321	0.5083	go	n/a	1.285	correct	right	female
254.0319	0.5083	unsuccesful_stop	0.8	0.948	correct	left	male
258.0402	0.5083	go	n/a	1.37	correct	right	female
261.5484	0.5083	go	n/a	1.133	correct	right	female
265.0566	0.5084	go	n/a	1.22	correct	left	male
270.0648	0.5084	unsuccesful_stop	0.75	0.86	correct	right	female
278.0813	0.5083	go	n/a	1.084	correct	right	female
286.0977	0.5084	unsuccesful_stop	0.7	0.815	correct	left	male
289.606	0.5083	go	n/a	1.039	correct	right	female
293.6142	0.5083	go	n/a	0.948	correct	left	male
301.6307	0.5083	succesful_stop	0.65	n/a	n/a	right	male
305.6389	0.5083	succesful_stop	0.6	n/a	n/a	right	female
308.6555	0.5083	go	n/a	1.073	correct	left	male
313.1554	0.5083	succesful_stop	0.55	n/a	n/a	right	male
316.6719	0.5083	succesful_stop	0.55	n/a	n/a	right	female
322.1718	0.5083	go	n/a	0.91	correct	right	female
325.68	0.5083	go	n/a	1.06	correct	right	female
330.1882	0.5084	go	n/a	1.008	correct	right	female
332.7048	0.5084	go	n/a	1.124	correct	right	female
338.2047	0.5083	go	n/a	0.977	correct	left	male
345.2212	0.5083	go	n/a	1.104	correct	left	male
349.2294	0.5083	go	n/a	0.852	correct	left	male
353.2376	0.5083	go	n/a	1.053	correct	right	female
356.7542	0.5083	go	n/a	0.951	correct	left	male
362.2541	0.5083	succesful_stop	0.6	n/a	n/a	right	female
368.7789	0.5083	go	n/a	0.846	correct	left	male
373.7787	0.5084	succesful_stop	0.65	n/a	n/a	right	male
378.287	0.5083	go	n/a	1.239	correct	right	female
381.7952	0.5083	go	n/a	0.765	correct	right	female
386.3034	0.5083	go	n/a	0.9	correct	left	male
389.3117	0.5083	go	n/a	0.972	correct	left	male
394.3199	0.5083	go	n/a	0.836	correct	right	female
400.8447	0.5083	go	n/a	0.79	correct	right	female
404.8529	0.5083	go	n/a	1.026	correct	right	female
409.3528	0.5083	unsuccesful_stop	0.7	0.901	correct	right	female
413.861	0.5083	go	n/a	0.844	correct	left	male
417.8692	0.5084	go	n/a	0.767	correct	right	female
421.8775	0.5083	go	n/a	0.793	correct	left	male
426.3857	0.5083	go	n/a	0.814	correct	right	female
430.3939	0.5083	go	n/a	0.813	correct	right	female
434.4021	0.5084	unsuccesful_stop	0.75	0.881	correct	right	female
438.4104	0.5083	succesful_stop	0.8	n/a	n/a	right	female
441.4186	0.5083	go	n/a	1.113	correct	right	female
