onset	duration	trial_type	stop_signal_delay	response_time	response_accuracy	response_hand	sex
1.5776	0.5083	go	n/a	0.874	correct	left	male
4.0942	0.5084	go	n/a	0.888	correct	left	male
13.6024	0.5083	go	n/a	0.852	correct	right	female
16.6107	0.5083	go	n/a	1.001	correct	right	female
21.1189	0.5084	succesful_stop	0.2	n/a	n/a	right	male
24.6272	0.5083	go	n/a	0.646	correct	left	male
29.6355	0.5083	succesful_stop	0.25	n/a	n/a	right	female
33.1437	0.5084	go	n/a	0.965	correct	right	female
37.152	0.5083	go	n/a	0.781	correct	right	female
40.6603	0.5083	go	n/a	0.857	correct	left	male
45.1685	0.5084	go	n/a	0.743	correct	left	male
49.6768	0.5083	go	n/a	0.82	correct	left	male
52.1934	0.5083	succesful_stop	0.3	n/a	n/a	right	female
56.6933	0.5084	go	n/a	0.861	correct	left	male
60.7016	0.5083	go	n/a	0.817	correct	left	male
64.7099	0.5083	go	n/a	0.863	correct	left	male
68.2265	0.5083	go	n/a	0.868	correct	left	male
73.7264	0.5083	go	n/a	1.13	incorrect	left	female
80.7429	0.5083	go	n/a	1.181	incorrect	right	male
84.2595	0.5084	go	n/a	1.254	correct	left	male
88.2678	0.5083	go	n/a	0.911	correct	right	female
92.7677	0.5083	go	n/a	1.354	correct	right	female
97.276	0.5083	go	n/a	1.206	correct	left	male
100.2926	0.5083	go	n/a	0.936	correct	right	female
105.7925	0.5083	go	n/a	1.074	correct	right	female
108.8008	0.5083	succesful_stop	0.35	n/a	n/a	right	female
113.309	0.5084	succesful_stop	0.4	n/a	n/a	right	male
117.8173	0.5083	go	n/a	1.203	correct	right	female
121.8256	0.5083	succesful_stop	0.45	n/a	n/a	right	female
125.3338	0.5084	go	n/a	0.906	correct	left	male
128.8421	0.5083	go	n/a	1.092	incorrect	left	female
132.8504	0.5083	go	n/a	1.416	incorrect	left	female
137.8586	0.5083	succesful_stop	0.5	n/a	n/a	right	male
141.8669	0.5083	go	n/a	1.36	correct	right	female
148.8834	0.5084	succesful_stop	0.55	n/a	n/a	right	female
157.4	0.5083	go	n/a	1.047	correct	left	male
161.4082	0.5083	go	n/a	0.782	correct	left	male
165.4165	0.5083	go	n/a	0.993	correct	right	female
168.4331	0.5083	succesful_stop	0.6	n/a	n/a	right	female
172.4414	0.5083	unsuccesful_stop	0.65	1.138	correct	left	male
181.4495	0.5084	go	n/a	0.836	correct	left	male
185.9578	0.5083	go	n/a	0.845	correct	right	female
189.4661	0.5083	succesful_stop	0.7	n/a	n/a	right	female
193.4743	0.5084	unsuccesful_stop	0.75	0.79	correct	left	male
196.491	0.5083	go	n/a	0.72	correct	left	male
200.9909	0.5083	succesful_stop	0.8	n/a	n/a	right	female
204.9991	0.5084	go	n/a	1.299	correct	right	female
208.5158	0.5083	unsuccesful_stop	0.85	0.907	correct	left	male
214.0157	0.5083	go	n/a	0.971	correct	left	male
217.0239	0.5084	go	n/a	1.129	correct	right	female
221.5322	0.5083	go	n/a	1.212	correct	left	male
224.5488	0.5083	succesful_stop	0.9	n/a	n/a	right	female
230.0487	0.5083	go	n/a	1.298	correct	right	female
234.057	0.5083	succesful_stop	0.95	n/a	n/a	right	female
237.5653	0.5083	succesful_stop	1.0	n/a	n/a	right	male
241.0735	0.5084	succesful_stop	1.05	n/a	n/a	right	male
246.0818	0.5083	go	n/a	1.198	incorrect	left	female
249.0901	0.5083	go	n/a	1.665	correct	right	female
253.5983	0.5083	go	n/a	1.396	incorrect	left	female
256.6149	0.5084	unsuccesful_stop	1.1	0.909	correct	left	male
264.6315	0.5083	go	n/a	1.711	correct	right	female
269.6314	0.5083	go	n/a	1.147	correct	right	female
274.1396	0.5084	succesful_stop	1.15	n/a	n/a	right	female
281.6562	0.5083	go	n/a	1.181	correct	right	female
286.1644	0.5084	go	n/a	1.283	correct	right	female
289.6727	0.5083	succesful_stop	1.2	n/a	n/a	right	female
293.181	0.5083	go	n/a	1.313	correct	left	male
297.6892	0.5084	go	n/a	1.44	correct	left	male
300.7058	0.5084	go	n/a	1.18	incorrect	left	female
305.2058	0.5083	go	n/a	0.695	correct	left	male
309.214	0.5084	go	n/a	1.291	correct	right	female
314.2223	0.5083	go	n/a	1.06	correct	right	female
317.7306	0.5083	unsuccesful_stop	1.25	1.39	correct	left	male
322.2388	0.5083	unsuccesful_stop	1.3	0.992	correct	right	female
325.7471	0.5083	unsuccesful_stop	1.35	1.248	correct	left	male
330.2553	0.5084	go	n/a	1.496	correct	right	female
333.2636	0.5083	go	n/a	1.184	correct	right	female
337.2719	0.5083	go	n/a	1.216	correct	right	female
342.2801	0.5084	go	n/a	1.896	incorrect	left	female
345.7884	0.5083	unsuccesful_stop	1.4	1.497	incorrect	left	female
349.7967	0.5083	go	n/a	1.618	correct	left	male
352.8133	0.5083	go	n/a	n/a	miss	right	male
359.8215	0.5083	unsuccesful_stop	1.45	1.262	correct	right	female
363.8298	0.5083	unsuccesful_stop	1.5	1.229	correct	left	male
367.838	0.5084	go	n/a	1.506	correct	left	male
376.3546	0.5083	go	n/a	2.477	incorrect	left	female
378.8712	0.5083	go	n/a	2.066	correct	left	male
383.3711	0.5083	unsuccesful_stop	1.55	0.864	correct	left	male
387.3794	0.5083	go	n/a	1.403	incorrect	left	female
391.8876	0.5083	go	n/a	1.31	correct	right	female
395.8959	0.5083	go	n/a	1.074	correct	right	female
399.4042	0.5083	go	n/a	1.0	correct	right	female
404.4124	0.5083	go	n/a	1.62	incorrect	left	female
411.429	0.5083	go	n/a	1.182	correct	left	male
415.9372	0.5083	go	n/a	1.023	correct	left	male
418.9538	0.5084	go	n/a	0.959	incorrect	left	female
423.4538	0.5083	go	n/a	1.079	correct	right	female
427.462	0.5083	succesful_stop	1.6	n/a	n/a	right	female
432.4703	0.5083	unsuccesful_stop	1.65	0.982	correct	right	female
436.4785	0.5084	succesful_stop	1.7	n/a	n/a	right	female
