onset	duration	trial_type	stop_signal_delay	response_time	response_accuracy	response_hand	sex
1.5602	0.5083	go	n/a	1.01	incorrect	left	female
8.5768	0.5083	unsuccesful_stop	0.2	0.608	correct	right	female
13.5851	0.5083	succesful_stop	0.2	n/a	n/a	right	female
17.5933	0.5084	succesful_stop	0.25	n/a	n/a	right	female
24.1183	0.5083	go	n/a	0.885	correct	right	female
28.6182	0.5083	succesful_stop	0.3	n/a	n/a	right	female
33.1265	0.5083	go	n/a	0.767	correct	right	female
37.6348	0.5083	succesful_stop	0.35	n/a	n/a	right	female
40.6431	0.5083	go	n/a	0.831	correct	left	male
44.6514	0.5083	go	n/a	0.822	correct	left	male
49.1596	0.5084	go	n/a	0.54	correct	left	male
53.1679	0.5084	unsuccesful_stop	0.4	0.588	correct	left	male
56.6762	0.5084	go	n/a	0.668	correct	left	male
61.6845	0.5083	unsuccesful_stop	0.45	0.501	incorrect	left	female
64.2011	0.5084	go	n/a	0.638	correct	right	female
69.7011	0.5083	go	n/a	0.573	correct	left	male
77.2177	0.5083	go	n/a	0.761	correct	right	female
81.226	0.5083	unsuccesful_stop	0.5	0.663	correct	right	female
85.2342	0.5084	go	n/a	0.717	correct	right	female
88.2509	0.5083	go	n/a	0.914	correct	right	female
93.2508	0.5083	go	n/a	0.665	incorrect	right	male
100.7674	0.5083	unsuccesful_stop	0.55	0.68	correct	left	male
105.2757	0.5083	go	n/a	0.53	correct	left	male
108.2923	0.5083	go	n/a	0.639	correct	left	male
116.3089	0.5083	go	n/a	0.94	correct	right	female
121.8088	0.5084	unsuccesful_stop	0.55	0.697	correct	right	female
128.8254	0.5083	go	n/a	0.641	correct	left	male
133.3337	0.5083	unsuccesful_stop	0.5	0.597	correct	left	male
137.342	0.5083	succesful_stop	0.45	n/a	n/a	right	female
144.3669	0.5083	go	n/a	0.643	correct	right	female
149.8668	0.5084	go	n/a	0.721	incorrect	left	female
153.8751	0.5084	go	n/a	0.6	correct	right	female
161.3917	0.5083	go	n/a	0.626	correct	left	male
164.9	0.5083	unsuccesful_stop	0.4	0.529	correct	right	female
172.9166	0.5083	go	n/a	0.736	correct	right	female
176.9249	0.5083	go	n/a	0.509	correct	right	female
180.4415	0.5083	go	n/a	0.698	correct	left	male
184.9414	0.5084	go	n/a	0.587	correct	left	male
189.4497	0.5083	go	n/a	0.596	correct	left	male
192.4664	0.5083	go	n/a	0.66	correct	right	female
197.4663	0.5083	unsuccesful_stop	0.35	0.561	correct	left	male
200.9746	0.5083	go	n/a	0.537	correct	right	female
204.9829	0.5083	go	n/a	0.537	correct	left	male
209.4912	0.5083	go	n/a	0.614	correct	right	female
212.5078	0.5083	unsuccesful_stop	0.3	0.485	correct	left	male
218.0077	0.5084	unsuccesful_stop	0.25	0.463	correct	right	female
221.016	0.5084	go	n/a	0.671	incorrect	left	female
225.5243	0.5083	go	n/a	0.593	correct	left	male
228.5409	0.5084	succesful_stop	0.2	n/a	n/a	right	male
237.0492	0.5083	go	n/a	0.575	correct	left	male
242.0575	0.5083	go	n/a	0.581	incorrect	right	male
246.0657	0.5084	unsuccesful_stop	0.15	0.726	correct	right	female
250.074	0.5084	go	n/a	0.58	correct	left	male
253.0823	0.5084	go	n/a	0.466	correct	left	male
257.5906	0.5083	go	n/a	0.441	incorrect	left	female
260.6072	0.5084	go	n/a	0.573	correct	left	male
265.6072	0.5083	go	n/a	0.581	correct	left	male
268.6238	0.5083	go	n/a	0.595	correct	right	female
274.1238	0.5083	go	n/a	0.54	correct	right	female
277.632	0.5084	go	n/a	0.513	correct	left	male
280.6487	0.5083	unsuccesful_stop	0.1	0.668	correct	left	male
290.1569	0.5083	go	n/a	0.512	correct	left	male
292.6735	0.5084	succesful_stop	0.05	n/a	n/a	right	male
302.1818	0.5083	go	n/a	0.727	correct	right	female
305.6901	0.5083	go	n/a	0.515	correct	left	male
310.1983	0.5084	go	n/a	0.597	correct	left	male
313.2066	0.5084	go	n/a	0.603	correct	right	female
318.2149	0.5083	go	n/a	0.437	correct	right	female
325.2315	0.5083	go	n/a	0.611	correct	right	female
330.2398	0.5083	go	n/a	0.46	incorrect	right	male
333.7481	0.5083	go	n/a	0.63	correct	right	female
337.7564	0.5083	go	n/a	0.731	correct	left	male
342.2646	0.5084	go	n/a	0.569	correct	right	female
346.2729	0.5084	unsuccesful_stop	0.05	0.573	correct	left	male
350.2812	0.5083	succesful_stop	0.05	n/a	n/a	right	male
352.7979	0.5083	go	n/a	0.62	correct	left	male
357.7978	0.5083	unsuccesful_stop	0.05	1.059	correct	left	male
361.8061	0.5083	succesful_stop	0.05	n/a	n/a	right	female
369.3227	0.5083	go	n/a	0.561	correct	left	male
373.331	0.5083	go	n/a	0.603	correct	right	female
377.8392	0.5084	go	n/a	0.722	correct	right	female
380.8559	0.5083	succesful_stop	0.05	n/a	n/a	right	female
385.8558	0.5083	succesful_stop	0.05	n/a	n/a	right	male
389.3641	0.5083	succesful_stop	0.05	n/a	n/a	right	female
393.8724	0.5083	succesful_stop	0.05	n/a	n/a	right	male
397.3807	0.5083	go	n/a	0.647	correct	right	female
402.389	0.5083	go	n/a	0.529	correct	right	female
406.3972	0.5084	go	n/a	0.509	correct	right	female
409.9055	0.5084	unsuccesful_stop	0.05	0.41	incorrect	right	male
414.4138	0.5083	go	n/a	0.545	correct	left	male
417.9221	0.5083	succesful_stop	0.05	n/a	n/a	right	female
421.4304	0.5083	succesful_stop	0.05	n/a	n/a	right	female
425.4387	0.5083	go	n/a	0.607	correct	left	male
429.947	0.5083	succesful_stop	0.05	n/a	n/a	right	female
433.4553	0.5083	succesful_stop	0.1	n/a	n/a	right	male
437.9635	0.5084	go	n/a	0.599	correct	left	male
440.9802	0.5083	go	n/a	0.562	correct	left	male
445.9801	0.5084	unsuccesful_stop	0.15	0.47	correct	left	male
450.4884	0.5083	go	n/a	0.671	correct	right	female
453.005	0.5084	succesful_stop	0.2	n/a	n/a	right	female
