onset	duration	trial_type	stop_signal_delay	response_time	response_accuracy	response_hand	sex
1.0491	0.5083	go	n/a	0.766	correct	left	male
5.5574	0.5083	succesful_stop	0.2	n/a	n/a	right	female
9.5656	0.5083	succesful_stop	0.25	n/a	n/a	right	female
13.0739	0.5083	go	n/a	0.586	correct	left	male
17.5821	0.5084	go	n/a	0.866	correct	right	female
21.5904	0.5083	go	n/a	0.638	correct	right	female
25.0987	0.5083	go	n/a	0.57	incorrect	left	female
28.1153	0.5083	go	n/a	0.722	correct	right	female
33.1152	0.5083	succesful_stop	0.3	n/a	n/a	right	male
36.6235	0.5083	go	n/a	0.34	correct	left	male
41.6317	0.5084	go	n/a	0.567	correct	left	male
44.64	0.5083	go	n/a	0.629	correct	right	female
49.6483	0.5083	unsuccesful_stop	0.35	0.536	correct	left	male
53.1565	0.5084	go	n/a	0.657	correct	right	female
57.1648	0.5083	go	n/a	0.706	incorrect	right	male
61.1731	0.5083	succesful_stop	0.4	n/a	n/a	right	male
65.1813	0.5084	succesful_stop	0.45	n/a	n/a	right	female
68.6896	0.5083	go	n/a	0.781	correct	right	female
72.2062	0.5083	unsuccesful_stop	0.5	0.765	correct	left	male
81.2144	0.5083	go	n/a	0.86	correct	left	male
85.7226	0.5084	go	n/a	0.753	correct	right	female
88.2393	0.5083	go	n/a	0.784	correct	right	female
92.7392	0.5083	unsuccesful_stop	0.55	0.773	correct	right	female
96.7475	0.5083	go	n/a	0.749	correct	left	male
101.2557	0.5083	go	n/a	0.932	correct	right	female
105.264	0.5083	go	n/a	0.74	correct	left	male
108.2806	0.5083	succesful_stop	0.6	n/a	n/a	right	female
112.7805	0.5083	go	n/a	0.829	correct	left	male
116.2971	0.5084	go	n/a	1.083	correct	left	male
121.297	0.5084	succesful_stop	0.65	n/a	n/a	right	male
125.8053	0.5083	unsuccesful_stop	0.7	0.948	correct	left	male
128.8136	0.5083	go	n/a	1.146	correct	right	female
132.3302	0.5083	go	n/a	1.25	correct	right	female
137.3301	0.5083	unsuccesful_stop	0.75	0.966	correct	right	female
141.8384	0.5083	go	n/a	1.089	correct	right	female
145.8466	0.5084	succesful_stop	0.8	n/a	n/a	right	male
149.3549	0.5083	go	n/a	1.313	correct	right	female
153.8632	0.5083	go	n/a	1.122	correct	left	male
157.3714	0.5084	succesful_stop	0.85	n/a	n/a	right	male
160.388	0.5084	go	n/a	1.182	correct	right	female
164.3963	0.5083	succesful_stop	0.9	n/a	n/a	right	female
169.3962	0.5083	go	n/a	1.374	correct	right	female
173.9045	0.5083	succesful_stop	0.95	n/a	n/a	right	female
181.421	0.5083	go	n/a	0.877	correct	left	male
185.4293	0.5083	go	n/a	1.485	correct	left	male
189.4375	0.5084	go	n/a	1.59	correct	left	male
197.4541	0.5083	succesful_stop	1.0	n/a	n/a	right	female
201.4623	0.5084	go	n/a	1.263	correct	left	male
204.9706	0.5083	succesful_stop	1.05	n/a	n/a	right	male
208.9789	0.5083	succesful_stop	1.1	n/a	n/a	right	female
213.9871	0.5084	go	n/a	1.367	correct	right	female
216.9954	0.5083	succesful_stop	1.15	n/a	n/a	right	female
221.5037	0.5083	go	n/a	1.581	correct	right	female
226.0119	0.5083	go	n/a	1.365	correct	left	male
229.5202	0.5083	succesful_stop	1.2	n/a	n/a	right	male
233.0285	0.5083	go	n/a	1.827	correct	right	female
237.0367	0.5084	go	n/a	1.813	correct	right	female
242.045	0.5083	go	n/a	1.62	correct	left	male
244.5616	0.5083	go	n/a	1.214	correct	left	male
253.0698	0.5083	go	n/a	1.202	correct	left	male
258.078	0.5084	unsuccesful_stop	1.25	1.084	correct	right	female
265.0946	0.5083	go	n/a	1.579	correct	right	female
268.6112	0.5083	go	n/a	1.386	correct	left	male
274.1111	0.5083	go	n/a	0.79	incorrect	left	female
276.6277	0.5083	unsuccesful_stop	1.3	0.63	correct	left	male
281.1276	0.5084	go	n/a	1.255	correct	left	male
286.1359	0.5083	go	n/a	1.302	correct	left	male
292.6608	0.5083	go	n/a	1.206	correct	right	female
297.1607	0.5083	go	n/a	1.352	correct	right	female
301.669	0.5083	go	n/a	1.388	correct	left	male
305.6772	0.5084	go	n/a	1.123	correct	right	female
309.1855	0.5083	go	n/a	1.248	correct	left	male
313.1938	0.5083	go	n/a	0.965	correct	left	male
318.202	0.5083	unsuccesful_stop	1.35	1.143	correct	right	female
322.2103	0.5083	unsuccesful_stop	1.4	0.991	correct	left	male
325.7186	0.5083	unsuccesful_stop	1.45	1.365	correct	left	male
328.7352	0.5083	go	n/a	1.653	correct	left	male
334.2351	0.5083	go	n/a	0.818	correct	right	female
337.2434	0.5083	go	n/a	0.506	correct	left	male
341.7516	0.5083	unsuccesful_stop	1.5	1.159	correct	left	male
345.7599	0.5083	unsuccesful_stop	1.55	1.092	correct	left	male
350.2681	0.5084	unsuccesful_stop	1.6	1.418	correct	right	female
353.2764	0.5083	go	n/a	1.859	correct	left	male
358.2847	0.5083	unsuccesful_stop	1.65	1.741	correct	right	female
361.7929	0.5084	unsuccesful_stop	1.7	0.953	correct	right	female
368.8178	0.5083	go	n/a	1.436	correct	left	male
373.3177	0.5084	go	n/a	1.902	correct	left	male
376.8343	0.5084	unsuccesful_stop	1.75	1.716	correct	left	male
384.8509	0.5083	go	n/a	1.861	correct	left	male
388.8591	0.5084	go	n/a	1.929	correct	right	female
393.3591	0.5083	unsuccesful_stop	1.8	1.91	correct	left	male
398.3673	0.5083	go	n/a	1.142	correct	right	female
401.8756	0.5083	go	n/a	1.886	correct	left	male
404.8922	0.5083	go	n/a	2.284	correct	right	female
409.3921	0.5083	go	n/a	2.256	correct	right	female
413.9004	0.5083	go	n/a	2.153	correct	right	female
417.9086	0.5084	go	n/a	1.817	correct	left	male
421.4169	0.5083	go	n/a	2.125	correct	right	female
425.4252	0.5083	go	n/a	2.284	correct	right	female
429.4335	0.5083	go	n/a	2.244	correct	right	female
