onset	duration	trial_type	stop_signal_delay	response_time	response_accuracy	response_hand	sex
1.5251	0.5083	succesful_stop	0.2	n/a	n/a	right	female
5.5334	0.5083	go	n/a	0.813	correct	left	male
9.5417	0.5083	go	n/a	0.837	correct	left	male
12.55	0.5083	go	n/a	0.628	incorrect	left	female
17.5582	0.5083	go	n/a	0.785	correct	right	female
20.5665	0.5083	succesful_stop	0.25	n/a	n/a	right	female
25.0748	0.5083	succesful_stop	0.3	n/a	n/a	right	male
29.583	0.5084	go	n/a	0.707	correct	left	male
33.0913	0.5083	succesful_stop	0.35	n/a	n/a	right	male
37.5996	0.5083	go	n/a	0.743	incorrect	left	female
40.1162	0.5083	go	n/a	1.343	correct	right	female
44.1245	0.5083	go	n/a	0.939	correct	left	male
49.1244	0.5083	go	n/a	0.75	correct	left	male
52.6327	0.5083	go	n/a	1.103	correct	left	male
56.641	0.5083	succesful_stop	0.4	n/a	n/a	right	female
64.6575	0.5084	go	n/a	0.842	correct	left	male
68.6658	0.5083	go	n/a	1.16	correct	right	female
73.1741	0.5083	unsuccesful_stop	0.45	0.953	incorrect	left	female
77.6823	0.5084	succesful_stop	0.5	n/a	n/a	right	male
80.199	0.5083	go	n/a	1.047	correct	right	female
85.1989	0.5083	go	n/a	1.005	incorrect	left	female
88.2155	0.5083	unsuccesful_stop	0.55	1.151	correct	right	female
92.2238	0.5083	go	n/a	1.087	correct	left	male
100.732	0.5083	go	n/a	0.782	correct	left	male
105.2403	0.5083	succesful_stop	0.6	n/a	n/a	right	female
113.7568	0.5083	go	n/a	0.917	correct	left	male
117.2651	0.5083	go	n/a	1.308	incorrect	left	female
120.7734	0.5083	go	n/a	1.221	correct	right	female
125.7816	0.5084	unsuccesful_stop	0.65	0.827	correct	left	male
129.2899	0.5083	go	n/a	1.592	correct	right	female
133.2982	0.5083	succesful_stop	0.7	n/a	n/a	right	female
136.8065	0.5083	go	n/a	1.226	correct	left	male
140.3231	0.5083	succesful_stop	0.75	n/a	n/a	right	male
149.3313	0.5083	go	n/a	0.902	correct	left	male
152.8396	0.5083	go	n/a	1.205	correct	left	male
156.8478	0.5084	go	n/a	1.12	correct	right	female
161.3561	0.5083	go	n/a	1.407	correct	left	male
164.8644	0.5083	succesful_stop	0.8	n/a	n/a	right	male
169.8727	0.5083	go	n/a	1.275	correct	right	female
173.8809	0.5084	go	n/a	1.498	correct	right	female
176.3976	0.5083	succesful_stop	0.85	n/a	n/a	right	male
181.3975	0.5083	go	n/a	0.943	incorrect	left	female
185.4058	0.5083	go	n/a	2.0	incorrect	left	female
189.914	0.5084	unsuccesful_stop	0.9	1.333	correct	right	female
192.9223	0.5084	go	n/a	1.523	correct	right	female
197.4306	0.5083	go	n/a	1.16	correct	right	female
201.4389	0.5083	go	n/a	1.341	correct	left	male
204.9471	0.5084	go	n/a	1.206	correct	left	male
208.4638	0.5083	succesful_stop	0.95	n/a	n/a	right	female
213.4637	0.5083	go	n/a	1.693	correct	left	male
217.472	0.5083	go	n/a	1.526	incorrect	left	female
221.9802	0.5084	go	n/a	1.324	incorrect	left	female
225.4885	0.5083	succesful_stop	1.0	n/a	n/a	right	female
233.5051	0.5083	unsuccesful_stop	1.05	1.165	correct	right	female
238.0133	0.5084	succesful_stop	1.1	n/a	n/a	right	female
241.0216	0.5083	go	n/a	1.842	correct	right	female
245.0299	0.5083	succesful_stop	1.15	n/a	n/a	right	male
249.0382	0.5083	go	n/a	1.592	correct	left	male
253.0464	0.5084	go	n/a	1.208	correct	left	male
256.5631	0.5083	succesful_stop	1.2	n/a	n/a	right	female
262.063	0.5083	succesful_stop	1.25	n/a	n/a	right	male
265.5713	0.5083	go	n/a	1.486	correct	left	male
268.5879	0.5083	go	n/a	1.335	correct	left	male
274.0878	0.5083	unsuccesful_stop	1.3	1.492	incorrect	left	female
276.6044	0.5084	succesful_stop	1.35	n/a	n/a	right	female
282.1044	0.5083	go	n/a	1.771	incorrect	left	female
286.1126	0.5084	go	n/a	1.814	correct	right	female
290.1209	0.5083	go	n/a	1.807	incorrect	left	female
297.1375	0.5083	go	n/a	1.528	correct	right	female
300.6541	0.5083	go	n/a	1.743	correct	left	male
310.1623	0.5083	go	n/a	1.175	correct	right	female
314.1706	0.5083	go	n/a	1.915	correct	right	female
317.1788	0.5084	succesful_stop	1.4	n/a	n/a	right	male
322.1871	0.5083	go	n/a	1.395	correct	right	female
326.1954	0.5083	go	n/a	1.741	correct	right	female
330.2037	0.5083	go	n/a	2.155	correct	left	male
332.7203	0.5083	go	n/a	1.616	correct	left	male
338.2202	0.5083	go	n/a	1.317	correct	left	male
341.7285	0.5083	go	n/a	1.474	correct	right	female
346.2368	0.5083	go	n/a	1.281	correct	left	male
349.745	0.5084	unsuccesful_stop	1.45	1.582	correct	left	male
353.7533	0.5083	unsuccesful_stop	1.5	1.652	correct	left	male
357.2616	0.5083	succesful_stop	1.55	n/a	n/a	right	male
361.7699	0.5083	succesful_stop	1.6	n/a	n/a	right	male
365.2781	0.5084	go	n/a	2.478	correct	left	male
368.7948	0.5083	go	n/a	2.414	correct	left	male
373.7947	0.5083	go	n/a	n/a	miss	right	male
379.3113	0.5083	go	n/a	1.065	correct	left	male
382.8279	0.5083	go	n/a	1.705	correct	left	male
387.3278	0.5083	go	n/a	1.931	correct	right	female
391.8361	0.5083	succesful_stop	1.65	n/a	n/a	right	male
394.8527	0.5083	succesful_stop	1.7	n/a	n/a	right	male
400.3526	0.5084	go	n/a	2.107	correct	left	male
408.3692	0.5083	go	n/a	1.818	correct	right	female
416.3857	0.5084	go	n/a	1.6	correct	left	male
419.894	0.5083	unsuccesful_stop	1.75	1.806	correct	left	male
422.9106	0.5084	go	n/a	1.987	correct	right	female
427.9106	0.5083	go	n/a	2.46	correct	left	male
431.4188	0.5084	go	n/a	n/a	miss	right	female
436.9438	0.5083	go	n/a	1.335	correct	right	female
