onset	duration	trial_type	stop_signal_delay	response_time	response_accuracy	response_hand	sex
1.035	0.5083	go	n/a	1.167	correct	left	male
4.0516	0.5083	go	n/a	0.919	correct	right	female
9.0514	0.5084	go	n/a	0.97	correct	right	female
12.068	0.5084	go	n/a	1.147	correct	left	male
16.5679	0.5084	succesful_stop	0.2	n/a	n/a	right	female
20.5762	0.5083	go	n/a	1.104	correct	left	male
24.5844	0.5083	go	n/a	1.206	correct	left	male
33.1009	0.5083	go	n/a	1.206	correct	left	male
36.1175	0.5083	go	n/a	1.25	correct	left	male
41.6174	0.5083	go	n/a	1.432	correct	left	male
45.1256	0.5083	succesful_stop	0.25	n/a	n/a	right	male
48.1422	0.5083	go	n/a	0.867	correct	right	female
52.1505	0.5083	go	n/a	1.294	correct	left	male
57.1503	0.5084	succesful_stop	0.3	n/a	n/a	right	female
60.1669	0.5084	succesful_stop	0.35	n/a	n/a	right	male
64.1752	0.5083	go	n/a	1.288	correct	left	male
69.675	0.5084	succesful_stop	0.4	n/a	n/a	right	female
72.6833	0.5083	go	n/a	1.052	correct	right	female
80.6998	0.5083	go	n/a	1.26	correct	right	female
84.708	0.5084	go	n/a	1.351	correct	left	male
88.2246	0.5083	succesful_stop	0.45	n/a	n/a	right	female
93.7245	0.5083	succesful_stop	0.5	n/a	n/a	right	female
97.2327	0.5084	go	n/a	1.077	correct	left	male
100.741	0.5083	succesful_stop	0.55	n/a	n/a	right	female
104.2576	0.5083	go	n/a	0.955	correct	left	male
108.2658	0.5083	succesful_stop	0.6	n/a	n/a	right	male
112.7657	0.5083	succesful_stop	0.65	n/a	n/a	right	male
116.2823	0.5083	go	n/a	1.562	correct	right	female
121.2822	0.5083	succesful_stop	0.7	n/a	n/a	right	female
125.2904	0.5084	go	n/a	1.089	correct	left	male
128.307	0.5083	go	n/a	1.226	correct	left	male
137.3152	0.5083	go	n/a	1.494	correct	right	female
140.3317	0.5084	go	n/a	1.635	correct	right	female
145.8316	0.5083	go	n/a	2.454	correct	right	female
149.8399	0.5083	go	n/a	2.116	correct	right	female
152.3565	0.5083	go	n/a	1.25	correct	left	male
157.3564	0.5083	succesful_stop	0.75	n/a	n/a	right	female
161.3646	0.5083	go	n/a	1.105	correct	right	female
164.8728	0.5084	go	n/a	1.426	correct	right	female
173.3893	0.5083	succesful_stop	0.8	n/a	n/a	right	male
177.8975	0.5084	go	n/a	1.081	correct	right	female
184.9141	0.5083	go	n/a	1.383	correct	left	male
189.4223	0.5083	go	n/a	1.039	correct	left	male
192.4389	0.5083	go	n/a	1.099	correct	right	female
197.9388	0.5083	go	n/a	1.022	correct	left	male
201.447	0.5083	succesful_stop	0.85	n/a	n/a	right	female
205.4552	0.5084	go	n/a	1.357	correct	right	female
212.4801	0.5083	go	n/a	1.213	correct	right	female
217.48	0.5083	succesful_stop	0.9	n/a	n/a	right	female
221.9882	0.5083	go	n/a	1.079	correct	left	male
225.9964	0.5084	go	n/a	1.396	correct	right	female
233.5129	0.5084	go	n/a	1.149	correct	left	male
237.0212	0.5083	unsuccesful_stop	0.95	1.014	correct	right	female
241.5294	0.5083	go	n/a	1.502	correct	right	female
244.546	0.5083	go	n/a	1.343	correct	left	male
248.5543	0.5083	unsuccesful_stop	1.0	1.154	correct	right	female
254.0541	0.5083	go	n/a	1.435	correct	left	male
256.5707	0.5084	go	n/a	1.554	correct	right	female
262.0706	0.5083	go	n/a	1.555	correct	left	male
270.0871	0.5083	go	n/a	1.379	correct	left	male
273.0953	0.5084	unsuccesful_stop	1.05	1.091	correct	left	male
276.6119	0.5084	go	n/a	1.322	correct	left	male
281.1118	0.5084	succesful_stop	1.1	n/a	n/a	right	female
286.12	0.5084	go	n/a	1.489	correct	right	female
293.1366	0.5083	go	n/a	1.576	correct	right	female
298.1448	0.5083	succesful_stop	1.15	n/a	n/a	right	male
301.153	0.5084	succesful_stop	1.2	n/a	n/a	right	male
309.6695	0.5083	succesful_stop	1.25	n/a	n/a	right	male
313.6777	0.5084	go	n/a	1.544	correct	right	female
316.6943	0.5084	succesful_stop	1.3	n/a	n/a	right	female
322.1942	0.5083	go	n/a	1.836	correct	left	male
324.7108	0.5083	go	n/a	1.627	correct	right	female
329.2107	0.5083	go	n/a	1.701	correct	right	female
333.7189	0.5084	go	n/a	1.962	correct	right	female
337.7272	0.5083	go	n/a	1.798	correct	left	male
341.7354	0.5083	go	n/a	1.755	correct	left	male
346.2437	0.5083	succesful_stop	1.35	n/a	n/a	right	male
348.7603	0.5083	succesful_stop	1.4	n/a	n/a	right	female
352.7685	0.5083	unsuccesful_stop	1.45	1.61	correct	right	female
356.7767	0.5084	go	n/a	2.299	correct	right	female
361.7766	0.5083	go	n/a	1.827	correct	left	male
368.8015	0.5083	unsuccesful_stop	1.5	1.639	correct	left	male
378.3096	0.5083	succesful_stop	1.55	n/a	n/a	right	male
380.8262	0.5083	succesful_stop	1.6	n/a	n/a	right	male
384.8344	0.5084	go	n/a	2.205	correct	left	male
389.8343	0.5083	go	n/a	2.226	correct	right	female
394.3425	0.5084	go	n/a	1.942	correct	left	male
397.8508	0.5083	go	n/a	2.129	correct	right	female
402.359	0.5083	go	n/a	2.26	correct	left	male
404.8756	0.5084	go	n/a	2.147	correct	left	male
408.8839	0.5083	go	n/a	2.151	correct	left	male
414.3837	0.5084	succesful_stop	1.65	n/a	n/a	right	male
417.392	0.5083	go	n/a	2.497	correct	left	male
421.9002	0.5084	succesful_stop	1.7	n/a	n/a	right	male
424.9168	0.5084	go	n/a	2.421	correct	left	male
430.4167	0.5083	go	n/a	2.142	correct	left	male
433.925	0.5083	go	n/a	1.6	correct	right	female
436.9416	0.5083	unsuccesful_stop	1.75	1.8	correct	right	female
441.4415	0.5083	go	n/a	2.385	correct	left	male
444.958	0.5084	go	n/a	2.574	correct	right	female
