onset	duration	trial_type	stop_signal_delay	response_time	response_accuracy	response_hand	sex
1.052	0.5083	go	n/a	0.68	correct	left	male
5.5601	0.5084	unsuccesful_stop	0.2	0.702	correct	right	female
9.5683	0.5084	succesful_stop	0.2	n/a	n/a	right	female
13.0765	0.5084	go	n/a	0.664	correct	left	male
17.5847	0.5083	go	n/a	0.708	correct	right	female
21.5929	0.5083	go	n/a	0.742	correct	right	female
25.1011	0.5083	go	n/a	0.948	incorrect	left	female
28.1177	0.5083	go	n/a	0.823	correct	right	female
33.1175	0.5083	succesful_stop	0.25	n/a	n/a	right	male
36.6257	0.5083	go	n/a	0.697	correct	left	male
41.6339	0.5083	go	n/a	0.68	correct	left	male
44.6421	0.5083	go	n/a	0.725	correct	right	female
49.6503	0.5083	succesful_stop	0.3	n/a	n/a	right	male
53.1585	0.5083	go	n/a	0.64	correct	right	female
57.1667	0.5083	go	n/a	0.628	correct	left	male
61.1749	0.5083	succesful_stop	0.35	n/a	n/a	right	male
65.1831	0.5083	succesful_stop	0.4	n/a	n/a	right	female
68.6913	0.5083	go	n/a	0.581	correct	right	female
72.2078	0.5083	unsuccesful_stop	0.45	0.675	correct	left	male
81.2158	0.5083	go	n/a	0.773	correct	left	male
85.724	0.5083	go	n/a	0.638	correct	right	female
88.2406	0.5083	go	n/a	0.587	correct	right	female
92.7404	0.5083	unsuccesful_stop	0.5	0.741	correct	right	female
96.7486	0.5083	go	n/a	0.679	correct	left	male
101.2568	0.5083	go	n/a	0.771	correct	right	female
105.265	0.5083	go	n/a	0.597	correct	left	male
108.2816	0.5083	unsuccesful_stop	0.55	0.559	correct	right	female
112.7814	0.5083	go	n/a	0.594	correct	left	male
116.2979	0.5084	go	n/a	0.618	correct	left	male
121.2978	0.5083	unsuccesful_stop	0.6	0.679	correct	left	male
125.8059	0.5084	unsuccesful_stop	0.65	0.586	correct	left	male
128.8142	0.5083	go	n/a	0.747	correct	right	female
132.3307	0.5083	go	n/a	0.637	correct	right	female
137.3305	0.5084	unsuccesful_stop	0.65	0.852	correct	right	female
141.8387	0.5083	go	n/a	0.548	correct	right	female
145.8469	0.5083	succesful_stop	0.6	n/a	n/a	right	male
149.3551	0.5083	go	n/a	0.811	correct	right	female
153.8633	0.5083	go	n/a	0.803	correct	left	male
157.3715	0.5083	succesful_stop	0.6	n/a	n/a	right	male
160.3881	0.5083	go	n/a	0.569	correct	right	female
164.3963	0.5083	unsuccesful_stop	0.65	0.731	correct	right	female
169.3961	0.5083	go	n/a	1.054	correct	right	female
173.9043	0.5083	succesful_stop	0.65	n/a	n/a	right	female
181.4207	0.5083	go	n/a	0.76	correct	left	male
185.4289	0.5083	go	n/a	0.808	correct	left	male
189.4371	0.5083	go	n/a	0.751	correct	left	male
197.4534	0.5083	unsuccesful_stop	0.7	0.735	correct	right	female
201.4616	0.5083	go	n/a	0.855	correct	left	male
204.9698	0.5084	unsuccesful_stop	0.7	0.792	correct	left	male
208.978	0.5083	unsuccesful_stop	0.65	0.695	correct	right	female
213.9862	0.5083	go	n/a	0.857	correct	right	female
216.9944	0.5083	succesful_stop	0.6	n/a	n/a	right	female
221.5026	0.5083	go	n/a	0.874	correct	right	female
226.0108	0.5083	go	n/a	0.766	correct	left	male
229.519	0.5083	unsuccesful_stop	0.55	0.725	correct	left	male
233.0272	0.5083	go	n/a	0.979	correct	right	female
237.0354	0.5083	go	n/a	0.937	correct	right	female
242.0435	0.5084	go	n/a	1.036	correct	left	male
244.5601	0.5083	go	n/a	0.881	correct	left	male
253.0682	0.5083	go	n/a	0.749	correct	left	male
258.0763	0.5083	succesful_stop	0.5	n/a	n/a	right	female
265.0927	0.5084	go	n/a	0.734	correct	right	female
268.6093	0.5083	go	n/a	0.842	correct	left	male
274.1091	0.5083	go	n/a	0.752	correct	right	female
276.6257	0.5083	succesful_stop	0.45	n/a	n/a	right	male
281.1255	0.5083	go	n/a	0.686	correct	left	male
286.1337	0.5083	go	n/a	0.698	correct	left	male
292.6584	0.5084	go	n/a	0.852	correct	right	female
297.1583	0.5083	go	n/a	0.739	correct	right	female
301.6665	0.5083	go	n/a	0.706	correct	left	male
305.6747	0.5083	go	n/a	0.735	correct	right	female
309.1829	0.5083	go	n/a	0.601	correct	left	male
313.1911	0.5083	go	n/a	0.725	correct	left	male
318.1992	0.5083	succesful_stop	0.45	n/a	n/a	right	female
322.2074	0.5083	unsuccesful_stop	0.5	0.531	correct	left	male
325.7156	0.5083	succesful_stop	0.5	n/a	n/a	right	male
328.7322	0.5083	go	n/a	0.839	correct	left	male
334.232	0.5083	go	n/a	0.981	correct	right	female
337.2402	0.5083	go	n/a	1.155	correct	left	male
341.7484	0.5083	unsuccesful_stop	0.55	0.619	correct	left	male
345.7566	0.5083	succesful_stop	0.55	n/a	n/a	right	male
350.2648	0.5083	unsuccesful_stop	0.6	0.755	correct	right	female
353.273	0.5083	go	n/a	0.983	correct	left	male
358.2811	0.5084	succesful_stop	0.6	n/a	n/a	right	female
361.7894	0.5083	succesful_stop	0.65	n/a	n/a	right	female
368.8141	0.5083	go	n/a	0.704	correct	left	male
373.3139	0.5084	go	n/a	0.766	correct	left	male
376.8305	0.5083	unsuccesful_stop	0.7	0.902	correct	left	male
384.8469	0.5083	go	n/a	0.702	correct	left	male
388.8551	0.5083	go	n/a	0.73	correct	right	female
393.3549	0.5083	unsuccesful_stop	0.75	0.62	correct	left	male
398.3631	0.5083	go	n/a	0.882	correct	right	female
401.8713	0.5083	go	n/a	0.705	correct	left	male
404.8878	0.5084	go	n/a	0.925	correct	right	female
409.3877	0.5083	go	n/a	0.818	correct	right	female
413.8959	0.5083	go	n/a	0.845	correct	right	female
417.9041	0.5083	go	n/a	0.999	correct	left	male
421.4123	0.5083	go	n/a	1.103	correct	right	female
425.4205	0.5083	go	n/a	0.703	correct	right	female
429.4286	0.5084	go	n/a	0.892	correct	right	female
