onset	duration	trial_type	stop_signal_delay	response_time	response_accuracy	response_hand	sex
0.5761	0.5083	go	n/a	1.292	correct	right	female
5.5842	0.5083	go	n/a	1.165	correct	left	male
8.1008	0.5083	succesful_stop	0.2	n/a	n/a	right	male
13.1006	0.5083	go	n/a	0.738	correct	left	male
20.617	0.5084	go	n/a	0.826	correct	right	female
24.6252	0.5083	succesful_stop	0.25	n/a	n/a	right	male
28.1418	0.5083	go	n/a	0.955	correct	left	male
32.15	0.5083	go	n/a	0.848	correct	right	female
36.1582	0.5083	go	n/a	0.836	correct	right	female
40.658	0.5083	go	n/a	1.289	correct	right	female
44.1745	0.5084	go	n/a	0.815	correct	right	female
49.1744	0.5083	go	n/a	0.714	correct	left	male
52.1909	0.5083	go	n/a	0.714	correct	right	female
57.6907	0.5084	go	n/a	0.819	correct	left	male
61.6989	0.5083	succesful_stop	0.3	n/a	n/a	right	male
64.2155	0.5083	go	n/a	0.853	correct	left	male
68.7153	0.5084	go	n/a	0.816	correct	left	male
73.2235	0.5083	succesful_stop	0.35	n/a	n/a	right	female
76.7317	0.5084	succesful_stop	0.4	n/a	n/a	right	female
80.2483	0.5083	go	n/a	1.063	correct	left	male
84.7481	0.5083	succesful_stop	0.45	n/a	n/a	right	male
88.7563	0.5083	go	n/a	0.841	correct	left	male
92.2729	0.5083	go	n/a	1.028	correct	left	male
97.7727	0.5083	unsuccesful_stop	0.5	0.696	correct	left	male
101.2809	0.5083	go	n/a	0.835	correct	left	male
105.2891	0.5083	unsuccesful_stop	0.55	0.722	correct	right	female
108.3056	0.5083	go	n/a	1.261	correct	left	male
117.8136	0.5083	go	n/a	0.975	correct	right	female
120.3302	0.5083	go	n/a	0.823	correct	left	male
125.83	0.5083	succesful_stop	0.6	n/a	n/a	right	male
129.3382	0.5083	unsuccesful_stop	0.65	0.784	correct	left	male
133.3464	0.5083	go	n/a	0.941	correct	right	female
136.363	0.5083	go	n/a	1.006	correct	left	male
141.8628	0.5083	unsuccesful_stop	0.7	0.799	correct	right	female
145.871	0.5083	go	n/a	1.13	correct	left	male
149.3792	0.5083	succesful_stop	0.75	n/a	n/a	right	male
153.3874	0.5083	go	n/a	1.305	correct	left	male
157.3956	0.5083	go	n/a	1.109	correct	right	female
165.9119	0.5083	go	n/a	1.148	correct	right	female
169.9201	0.5083	go	n/a	1.23	correct	left	male
172.4367	0.5083	go	n/a	1.302	correct	left	male
177.4365	0.5083	go	n/a	1.171	correct	right	female
181.9447	0.5083	succesful_stop	0.8	n/a	n/a	right	male
184.9529	0.5083	go	n/a	1.173	correct	left	male
189.4611	0.5083	go	n/a	1.049	correct	left	male
192.4777	0.5083	unsuccesful_stop	0.85	0.933	correct	right	female
196.9775	0.5083	go	n/a	1.109	correct	right	female
200.9857	0.5083	succesful_stop	0.9	n/a	n/a	right	female
205.4939	0.5083	succesful_stop	0.95	n/a	n/a	right	male
210.0021	0.5083	succesful_stop	1.0	n/a	n/a	right	male
214.0102	0.5084	go	n/a	1.308	correct	right	female
221.5266	0.5084	go	n/a	1.105	correct	right	female
225.0349	0.5083	unsuccesful_stop	1.05	1.171	correct	left	male
228.5514	0.5083	go	n/a	1.621	correct	right	female
234.0512	0.5083	go	n/a	1.245	correct	left	male
237.0594	0.5084	succesful_stop	1.1	n/a	n/a	right	female
242.0676	0.5083	go	n/a	1.428	correct	right	female
244.5842	0.5083	unsuccesful_stop	1.15	1.213	correct	left	male
249.584	0.5083	go	n/a	2.068	correct	right	female
253.5922	0.5083	succesful_stop	1.2	n/a	n/a	right	male
256.6087	0.5084	go	n/a	1.756	correct	left	male
261.6086	0.5083	unsuccesful_stop	1.25	1.468	correct	right	female
264.6251	0.5083	go	n/a	2.056	correct	right	female
269.125	0.5083	go	n/a	1.755	correct	right	female
276.6497	0.5083	go	n/a	1.649	correct	left	male
286.1577	0.5083	succesful_stop	1.3	n/a	n/a	right	male
288.6743	0.5083	unsuccesful_stop	1.35	1.245	correct	left	male
297.6823	0.5083	go	n/a	1.121	correct	right	female
300.6989	0.5083	unsuccesful_stop	1.4	1.504	correct	left	male
305.1987	0.5083	unsuccesful_stop	1.45	1.6	correct	left	male
313.2151	0.5083	unsuccesful_stop	1.5	1.536	correct	right	female
317.7233	0.5083	succesful_stop	1.55	n/a	n/a	right	male
321.7315	0.5083	go	n/a	1.849	correct	left	male
325.7397	0.5083	go	n/a	1.883	correct	right	female
329.7478	0.5084	succesful_stop	1.6	n/a	n/a	right	male
334.256	0.5083	unsuccesful_stop	1.65	1.071	correct	right	female
336.7726	0.5083	unsuccesful_stop	1.7	1.68	correct	right	female
342.2724	0.5083	succesful_stop	1.75	n/a	n/a	right	female
344.789	0.5083	unsuccesful_stop	1.8	1.92	correct	right	female
350.2888	0.5083	go	n/a	1.508	correct	left	male
353.797	0.5083	go	n/a	1.601	correct	right	female
357.8052	0.5083	go	n/a	1.771	correct	right	female
361.3134	0.5083	unsuccesful_stop	1.85	1.281	correct	left	male
365.3216	0.5083	go	n/a	1.809	correct	right	female
369.8298	0.5083	go	n/a	1.64	correct	left	male
372.8463	0.5083	go	n/a	1.9	correct	right	female
377.8461	0.5084	go	n/a	2.416	correct	right	female
381.3544	0.5083	unsuccesful_stop	1.9	1.634	correct	right	female
386.3625	0.5083	unsuccesful_stop	1.95	0.966	correct	left	male
390.3707	0.5083	go	n/a	2.023	incorrect	left	female
393.8789	0.5083	go	n/a	1.63	correct	left	male
397.8871	0.5083	unsuccesful_stop	2.0	1.71	correct	right	female
401.8953	0.5083	unsuccesful_stop	2.0	1.515	correct	right	female
404.9119	0.5083	unsuccesful_stop	1.95	2.394	correct	left	male
408.9201	0.5083	go	n/a	2.359	correct	right	female
414.4199	0.5083	go	n/a	2.122	correct	left	male
416.9364	0.5084	unsuccesful_stop	1.9	0.976	correct	right	female
421.9363	0.5083	go	n/a	1.909	correct	right	female
424.9528	0.5083	go	n/a	1.376	correct	left	male
433.4609	0.5083	go	n/a	1.575	correct	right	female
