onset	duration	trial_type	stop_signal_delay	response_time	response_accuracy	response_hand	sex
0.5674	0.5083	go	n/a	0.649	correct	left	male
5.5757	0.5083	go	n/a	0.901	correct	left	male
9.5839	0.5084	succesful_stop	0.2	n/a	n/a	right	female
12.5922	0.5084	go	n/a	0.867	correct	right	female
17.6005	0.5083	succesful_stop	0.25	n/a	n/a	right	female
25.1171	0.5083	go	n/a	0.68	correct	left	male
29.1253	0.5084	succesful_stop	0.3	n/a	n/a	right	female
36.6419	0.5083	go	n/a	0.869	correct	right	female
41.6502	0.5083	go	n/a	0.637	correct	right	female
49.1667	0.5083	go	n/a	0.48	correct	left	male
52.675	0.5083	go	n/a	0.618	correct	left	male
56.6833	0.5083	go	n/a	0.562	correct	right	female
61.1915	0.5084	go	n/a	0.466	correct	left	male
65.1998	0.5083	go	n/a	0.652	correct	left	male
69.2081	0.5083	unsuccesful_stop	0.35	0.501	correct	right	female
73.2164	0.5083	go	n/a	0.923	correct	right	female
77.7246	0.5084	go	n/a	0.539	correct	right	female
80.2413	0.5083	go	n/a	0.563	correct	left	male
85.2412	0.5083	go	n/a	0.661	correct	right	female
89.2495	0.5083	unsuccesful_stop	0.4	0.575	correct	left	male
92.7578	0.5083	go	n/a	0.885	correct	left	male
97.266	0.5084	go	n/a	0.681	correct	left	male
101.2743	0.5083	go	n/a	0.573	correct	left	male
104.7826	0.5083	go	n/a	0.874	correct	right	female
109.2909	0.5083	go	n/a	0.676	correct	right	female
112.3075	0.5083	go	n/a	0.665	correct	left	male
117.3074	0.5083	go	n/a	0.638	correct	left	male
120.324	0.5084	go	n/a	0.715	correct	right	female
124.824	0.5083	go	n/a	0.636	correct	left	male
128.8322	0.5084	go	n/a	0.64	correct	left	male
133.8405	0.5083	go	n/a	0.527	correct	right	female
137.3488	0.5083	go	n/a	0.531	correct	left	male
140.8571	0.5083	go	n/a	0.847	correct	right	female
145.8653	0.5084	go	n/a	0.738	correct	right	female
148.382	0.5083	unsuccesful_stop	0.45	0.654	correct	left	male
157.3902	0.5083	succesful_stop	0.5	n/a	n/a	right	male
161.3984	0.5084	go	n/a	0.711	correct	left	male
164.4151	0.5083	go	n/a	0.806	correct	left	male
169.915	0.5083	go	n/a	0.759	correct	right	female
173.4233	0.5083	succesful_stop	0.55	n/a	n/a	right	female
177.9315	0.5084	unsuccesful_stop	0.6	0.762	correct	right	female
184.9481	0.5083	go	n/a	0.965	correct	left	male
189.9564	0.5083	go	n/a	0.879	correct	left	male
193.9646	0.5084	go	n/a	0.862	correct	left	male
196.9729	0.5084	go	n/a	0.922	correct	left	male
200.9812	0.5083	go	n/a	0.885	correct	right	female
205.9895	0.5083	go	n/a	0.94	correct	right	female
208.5061	0.5083	go	n/a	0.941	correct	left	male
212.5144	0.5083	go	n/a	0.904	correct	left	male
218.0143	0.5083	succesful_stop	0.65	n/a	n/a	right	male
221.5226	0.5083	unsuccesful_stop	0.7	0.798	correct	left	male
225.5309	0.5083	succesful_stop	0.75	n/a	n/a	right	male
229.5391	0.5084	unsuccesful_stop	0.8	0.839	correct	right	female
234.0474	0.5083	succesful_stop	0.85	n/a	n/a	right	male
238.0557	0.5083	go	n/a	1.291	incorrect	left	female
246.0722	0.5084	go	n/a	1.07	correct	left	male
249.0805	0.5083	go	n/a	1.115	correct	left	male
252.5971	0.5084	go	n/a	1.138	correct	left	male
261.6053	0.5084	go	n/a	1.266	correct	right	female
266.1136	0.5083	succesful_stop	0.9	n/a	n/a	right	female
269.6219	0.5083	go	n/a	1.073	correct	right	female
274.1302	0.5083	succesful_stop	0.95	n/a	n/a	right	female
278.1384	0.5084	succesful_stop	1.0	n/a	n/a	right	female
280.6551	0.5083	succesful_stop	1.05	n/a	n/a	right	female
285.155	0.5083	go	n/a	1.338	correct	right	female
289.1633	0.5083	go	n/a	1.525	correct	right	female
293.6715	0.5084	go	n/a	1.118	correct	right	female
297.1798	0.5084	go	n/a	1.133	correct	left	male
300.6964	0.5084	unsuccesful_stop	1.1	1.011	correct	right	female
304.7047	0.5083	go	n/a	1.133	correct	left	male
309.7046	0.5084	go	n/a	1.233	correct	right	female
313.2129	0.5084	go	n/a	1.19	correct	right	female
317.7212	0.5083	succesful_stop	1.15	n/a	n/a	right	female
325.2378	0.5083	unsuccesful_stop	1.2	1.038	correct	left	male
329.246	0.5084	go	n/a	1.498	incorrect	left	female
332.7627	0.5083	go	n/a	1.289	correct	right	female
337.2626	0.5083	unsuccesful_stop	1.25	1.357	correct	right	female
342.2708	0.5084	succesful_stop	1.3	n/a	n/a	right	male
345.2791	0.5084	go	n/a	2.02	incorrect	left	female
350.2874	0.5083	go	n/a	1.51	correct	left	male
353.7957	0.5083	go	n/a	1.757	correct	left	male
357.804	0.5083	go	n/a	1.602	correct	right	female
362.3122	0.5084	unsuccesful_stop	1.35	1.449	correct	left	male
365.8205	0.5083	go	n/a	2.097	correct	left	male
369.3288	0.5083	go	n/a	1.829	correct	left	male
373.8371	0.5083	go	n/a	1.556	correct	left	male
376.8537	0.5083	unsuccesful_stop	1.4	1.453	correct	right	female
380.862	0.5083	go	n/a	2.073	correct	right	female
384.8702	0.5084	go	n/a	1.881	correct	right	female
389.8702	0.5083	succesful_stop	1.45	n/a	n/a	right	male
394.3784	0.5084	succesful_stop	1.5	n/a	n/a	right	male
396.8951	0.5083	succesful_stop	1.55	n/a	n/a	right	male
406.4033	0.5083	go	n/a	1.963	correct	right	female
409.9115	0.5084	go	n/a	2.198	correct	right	female
413.9198	0.5083	unsuccesful_stop	1.6	1.224	correct	left	male
416.9364	0.5084	go	n/a	2.539	correct	left	male
422.4364	0.5083	go	n/a	n/a	miss	right	female
427.453	0.5083	go	n/a	1.41	correct	left	male
430.9696	0.5083	unsuccesful_stop	1.65	1.464	correct	left	male
438.9861	0.5084	go	n/a	1.919	correct	right	female
