onset	duration	trial_type	stop_signal_delay	response_time	response_accuracy	response_hand	sex
0.0705	0.5084	go	n/a	1.083	correct	left	male
5.0704	0.5083	go	n/a	0.978	correct	left	male
8.0869	0.5084	go	n/a	1.152	correct	left	male
17.095	0.5083	go	n/a	1.164	correct	left	male
20.1115	0.5083	go	n/a	1.319	correct	left	male
25.6113	0.5083	go	n/a	1.053	correct	right	female
29.6195	0.5083	go	n/a	1.354	correct	right	female
33.1277	0.5083	succesful_stop	0.2	n/a	n/a	right	male
36.6359	0.5084	go	n/a	1.084	correct	right	female
40.1525	0.5083	succesful_stop	0.25	n/a	n/a	right	male
48.6605	0.5083	go	n/a	1.015	correct	left	male
52.6687	0.5083	succesful_stop	0.3	n/a	n/a	right	female
57.1769	0.5083	succesful_stop	0.35	n/a	n/a	right	female
60.1934	0.5084	succesful_stop	0.4	n/a	n/a	right	female
65.6933	0.5083	succesful_stop	0.45	n/a	n/a	right	male
69.2015	0.5083	succesful_stop	0.5	n/a	n/a	right	male
73.2097	0.5083	succesful_stop	0.55	n/a	n/a	right	female
77.7178	0.5084	succesful_stop	0.6	n/a	n/a	right	female
84.2426	0.5083	go	n/a	1.083	correct	left	male
88.2508	0.5083	succesful_stop	0.65	n/a	n/a	right	male
92.7506	0.5084	go	n/a	1.019	correct	right	female
96.7588	0.5084	go	n/a	1.042	correct	left	male
100.767	0.5083	go	n/a	1.028	correct	right	female
104.2836	0.5083	go	n/a	1.089	correct	right	female
108.7834	0.5083	go	n/a	0.974	correct	left	male
113.2916	0.5083	go	n/a	0.968	correct	left	male
116.7998	0.5083	go	n/a	1.104	correct	left	male
121.808	0.5083	unsuccesful_stop	0.7	0.863	correct	right	female
125.8162	0.5083	go	n/a	1.084	correct	right	female
129.8243	0.5084	go	n/a	1.012	correct	left	male
133.8325	0.5084	succesful_stop	0.75	n/a	n/a	right	female
137.3408	0.5083	go	n/a	0.971	correct	right	female
141.3489	0.5084	succesful_stop	0.8	n/a	n/a	right	male
144.8572	0.5083	go	n/a	1.06	correct	right	female
149.8653	0.5083	succesful_stop	0.85	n/a	n/a	right	male
153.8735	0.5083	go	n/a	0.945	correct	right	female
157.8817	0.5083	go	n/a	0.939	correct	left	male
161.3899	0.5083	go	n/a	1.273	correct	left	male
165.3981	0.5083	go	n/a	1.02	correct	left	male
168.4147	0.5083	unsuccesful_stop	0.9	0.852	correct	right	female
173.4145	0.5083	go	n/a	0.914	correct	right	female
177.4227	0.5083	go	n/a	1.245	correct	right	female
180.9309	0.5083	go	n/a	1.449	correct	right	female
184.9391	0.5083	go	n/a	1.141	correct	left	male
188.4556	0.5083	go	n/a	1.31	correct	right	female
192.9555	0.5083	succesful_stop	0.95	n/a	n/a	right	male
197.9636	0.5083	unsuccesful_stop	1.0	1.037	correct	right	female
201.9718	0.5083	go	n/a	1.446	correct	left	male
209.9882	0.5083	succesful_stop	1.05	n/a	n/a	right	male
212.9964	0.5084	go	n/a	1.257	correct	left	male
217.0046	0.5083	go	n/a	1.22	correct	right	female
221.5128	0.5083	unsuccesful_stop	1.1	1.135	correct	left	male
225.521	0.5083	go	n/a	1.359	correct	left	male
229.5292	0.5083	go	n/a	1.378	correct	left	male
237.5456	0.5083	go	n/a	1.464	correct	right	female
241.5538	0.5083	go	n/a	1.42	correct	left	male
246.0619	0.5084	go	n/a	1.171	correct	right	female
248.5785	0.5083	go	n/a	1.405	correct	left	male
254.0783	0.5084	go	n/a	1.102	correct	left	male
256.5949	0.5083	go	n/a	1.412	correct	right	female
261.5947	0.5084	unsuccesful_stop	1.15	1.092	correct	right	female
268.6195	0.5083	go	n/a	1.321	correct	right	female
273.1193	0.5084	go	n/a	1.316	correct	right	female
276.6359	0.5083	go	n/a	1.412	correct	right	female
282.1357	0.5083	go	n/a	1.047	correct	right	female
285.6439	0.5083	go	n/a	1.596	correct	left	male
289.6521	0.5083	go	n/a	1.365	correct	right	female
293.6603	0.5083	succesful_stop	1.2	n/a	n/a	right	female
296.6768	0.5084	succesful_stop	1.25	n/a	n/a	right	male
305.6849	0.5083	unsuccesful_stop	1.3	1.378	correct	left	male
308.7014	0.5083	succesful_stop	1.35	n/a	n/a	right	male
317.7094	0.5084	go	n/a	1.56	correct	left	male
320.726	0.5083	succesful_stop	1.4	n/a	n/a	right	female
326.2258	0.5083	go	n/a	1.798	correct	left	male
330.234	0.5083	go	n/a	1.803	correct	right	female
337.2504	0.5083	unsuccesful_stop	1.45	1.301	correct	left	male
341.7586	0.5083	go	n/a	1.946	correct	left	male
345.2668	0.5083	succesful_stop	1.5	n/a	n/a	right	female
350.275	0.5083	go	n/a	1.637	correct	left	male
353.2832	0.5083	succesful_stop	1.55	n/a	n/a	right	male
356.7997	0.5084	succesful_stop	1.6	n/a	n/a	right	male
361.2996	0.5083	go	n/a	2.221	correct	left	male
365.8078	0.5083	succesful_stop	1.65	n/a	n/a	right	male
370.3159	0.5084	go	n/a	1.898	correct	left	male
374.3241	0.5083	go	n/a	1.713	correct	right	female
378.3323	0.5083	go	n/a	1.924	correct	left	male
381.8405	0.5083	go	n/a	1.606	correct	right	female
386.3487	0.5083	unsuccesful_stop	1.7	1.008	correct	right	female
388.8653	0.5083	go	n/a	1.873	correct	right	female
393.3651	0.5083	go	n/a	1.528	correct	left	male
397.8733	0.5083	go	n/a	1.416	correct	right	female
402.3815	0.5083	unsuccesful_stop	1.75	1.689	correct	right	female
405.3897	0.5083	go	n/a	2.012	correct	left	male
409.3979	0.5083	go	n/a	2.519	correct	right	female
414.4061	0.5083	go	n/a	1.935	correct	right	female
417.9143	0.5083	go	n/a	1.849	correct	left	male
420.9308	0.5083	go	n/a	1.754	correct	right	female
425.9307	0.5083	unsuccesful_stop	1.8	1.622	correct	right	female
429.4389	0.5083	unsuccesful_stop	1.85	1.92	correct	left	male
433.947	0.5084	go	n/a	2.292	correct	left	male
