onset	duration	trial_type	stop_signal_delay	response_time	response_accuracy	response_hand	sex
1.5116	0.5083	go	n/a	0.927	correct	right	female
4.5198	0.5083	go	n/a	0.733	correct	right	female
9.028	0.5084	unsuccesful_stop	0.2	0.585	correct	left	male
12.0446	0.5083	go	n/a	0.974	correct	left	male
20.5527	0.5083	go	n/a	0.922	correct	left	male
24.0693	0.5083	go	n/a	0.876	correct	left	male
29.0692	0.5083	go	n/a	0.788	correct	left	male
33.0774	0.5083	go	n/a	0.794	correct	right	female
36.5856	0.5084	go	n/a	0.771	correct	right	female
41.0939	0.5083	go	n/a	0.757	correct	left	male
44.1104	0.5084	succesful_stop	0.2	n/a	n/a	right	female
49.1103	0.5083	go	n/a	0.746	correct	right	female
52.1269	0.5083	go	n/a	1.629	incorrect	left	female
56.6268	0.5083	succesful_stop	0.25	n/a	n/a	right	male
60.1434	0.5083	unsuccesful_stop	0.3	0.782	correct	right	female
65.1432	0.5083	succesful_stop	0.35	n/a	n/a	right	male
68.1598	0.5083	go	n/a	0.928	correct	left	male
72.6597	0.5083	go	n/a	1.15	correct	left	male
77.6679	0.5083	go	n/a	1.207	correct	left	male
80.6762	0.5083	go	n/a	1.265	correct	right	female
84.1927	0.5084	go	n/a	1.181	correct	left	male
88.6926	0.5083	go	n/a	0.858	correct	right	female
93.2008	0.5084	go	n/a	0.956	correct	right	female
96.7091	0.5083	go	n/a	1.144	correct	left	male
104.7255	0.5084	go	n/a	1.12	correct	left	male
109.2337	0.5084	succesful_stop	0.4	n/a	n/a	right	female
113.242	0.5083	succesful_stop	0.45	n/a	n/a	right	female
117.2502	0.5083	go	n/a	1.236	incorrect	left	female
121.2584	0.5084	succesful_stop	0.5	n/a	n/a	right	male
125.7667	0.5083	succesful_stop	0.55	n/a	n/a	right	male
129.7749	0.5083	go	n/a	0.902	correct	left	male
132.2915	0.5083	go	n/a	1.054	correct	left	male
137.2913	0.5084	succesful_stop	0.6	n/a	n/a	right	male
140.7996	0.5083	unsuccesful_stop	0.65	0.809	correct	left	male
145.8078	0.5083	go	n/a	0.986	correct	left	male
148.816	0.5084	go	n/a	1.39	correct	right	female
156.3408	0.5084	go	n/a	1.181	correct	left	male
161.8407	0.5083	go	n/a	0.941	correct	right	female
164.3573	0.5083	go	n/a	1.017	correct	left	male
168.3655	0.5084	go	n/a	0.928	correct	right	female
172.8654	0.5083	unsuccesful_stop	0.7	0.854	correct	right	female
176.382	0.5083	go	n/a	0.906	correct	left	male
180.8819	0.5083	succesful_stop	0.75	n/a	n/a	right	female
185.8901	0.5083	unsuccesful_stop	0.8	0.877	correct	right	female
189.8983	0.5083	succesful_stop	0.85	n/a	n/a	right	male
193.9065	0.5084	go	n/a	1.395	correct	right	female
196.4231	0.5084	unsuccesful_stop	0.9	1.068	correct	right	female
201.923	0.5083	unsuccesful_stop	0.95	1.107	correct	left	male
204.4396	0.5083	go	n/a	1.524	correct	left	male
209.9395	0.5083	go	n/a	1.118	correct	left	male
212.9477	0.5083	go	n/a	1.261	correct	right	female
216.9559	0.5084	go	n/a	1.153	correct	left	male
221.4641	0.5084	go	n/a	0.877	correct	left	male
225.4724	0.5083	go	n/a	1.017	correct	right	female
228.489	0.5083	go	n/a	0.959	correct	right	female
232.4972	0.5083	go	n/a	1.004	correct	right	female
236.5054	0.5083	go	n/a	0.823	correct	right	female
241.5053	0.5083	go	n/a	0.887	correct	left	male
246.0135	0.5083	unsuccesful_stop	1.0	0.827	correct	left	male
249.5217	0.5084	unsuccesful_stop	1.05	1.165	incorrect	left	female
252.5383	0.5084	go	n/a	1.364	correct	left	male
257.0382	0.5083	go	n/a	1.379	correct	left	male
264.563	0.5083	go	n/a	1.275	correct	right	female
269.0629	0.5083	go	n/a	1.245	correct	right	female
272.5795	0.5083	go	n/a	1.72	correct	right	female
277.5793	0.5084	go	n/a	1.258	correct	left	male
281.0876	0.5083	unsuccesful_stop	1.1	0.983	correct	right	female
285.5958	0.5083	go	n/a	1.502	correct	left	male
290.104	0.5083	go	n/a	1.392	correct	left	male
293.6123	0.5083	succesful_stop	1.15	n/a	n/a	right	male
298.1205	0.5083	unsuccesful_stop	1.2	1.273	correct	left	male
300.6371	0.5083	succesful_stop	1.25	n/a	n/a	right	male
308.6535	0.5084	go	n/a	1.702	correct	left	male
313.6534	0.5083	succesful_stop	1.3	n/a	n/a	right	female
317.6616	0.5084	go	n/a	1.93	correct	right	female
321.6699	0.5083	go	n/a	2.626	correct	right	female
326.1781	0.5083	go	n/a	2.413	correct	right	female
329.6863	0.5083	go	n/a	1.302	correct	left	male
332.7029	0.5083	unsuccesful_stop	1.35	1.08	correct	right	female
337.7028	0.5083	go	n/a	1.649	correct	right	female
345.2192	0.5084	go	n/a	1.438	correct	right	female
350.2274	0.5084	go	n/a	1.177	correct	left	male
354.2357	0.5083	go	n/a	0.813	correct	right	female
356.7523	0.5083	unsuccesful_stop	1.4	1.17	correct	left	male
360.7605	0.5083	succesful_stop	1.45	n/a	n/a	right	female
365.7604	0.5083	unsuccesful_stop	1.5	1.646	correct	right	female
368.777	0.5083	go	n/a	1.198	correct	left	male
372.7852	0.5083	go	n/a	0.804	correct	left	male
381.7933	0.5083	go	n/a	1.127	correct	right	female
386.3015	0.5083	unsuccesful_stop	1.55	1.385	correct	right	female
388.8181	0.5083	go	n/a	1.199	correct	right	female
392.8263	0.5083	unsuccesful_stop	1.55	1.114	correct	right	female
397.8262	0.5083	go	n/a	1.687	incorrect	left	female
401.8344	0.5084	unsuccesful_stop	1.5	1.069	correct	left	male
406.3426	0.5084	go	n/a	1.584	correct	left	male
408.8592	0.5084	go	n/a	1.914	correct	left	male
412.8675	0.5083	unsuccesful_stop	1.45	1.556	correct	left	male
417.8673	0.5084	go	n/a	1.94	correct	left	male
422.3756	0.5083	go	n/a	1.255	correct	left	male
426.3838	0.5083	unsuccesful_stop	1.4	0.972	correct	right	female
