onset	duration	trial_type	stop_signal_delay	response_time	response_accuracy	response_hand	sex
0.0817	0.5084	go	n/a	1.487	correct	right	female
5.5817	0.5083	unsuccesful_stop	0.2	1.651	correct	right	female
9.59	0.5083	go	n/a	1.551	correct	right	female
13.5982	0.5084	succesful_stop	0.2	n/a	n/a	right	female
17.1065	0.5084	succesful_stop	0.25	n/a	n/a	right	male
21.6148	0.5084	go	n/a	1.266	correct	left	male
24.6231	0.5084	go	n/a	1.536	correct	left	male
28.6314	0.5083	go	n/a	1.282	correct	left	male
32.148	0.5084	go	n/a	1.29	correct	right	female
36.1563	0.5084	succesful_stop	0.3	n/a	n/a	right	female
41.6563	0.5083	go	n/a	1.23	correct	right	female
44.6646	0.5083	succesful_stop	0.35	n/a	n/a	right	female
49.6728	0.5084	go	n/a	1.372	correct	right	female
52.1895	0.5083	go	n/a	1.376	correct	left	male
56.1978	0.5083	succesful_stop	0.4	n/a	n/a	right	female
60.6977	0.5083	succesful_stop	0.45	n/a	n/a	right	male
65.706	0.5083	go	n/a	1.396	correct	right	female
73.7226	0.5083	succesful_stop	0.5	n/a	n/a	right	female
76.7309	0.5083	succesful_stop	0.55	n/a	n/a	right	male
81.2391	0.5084	go	n/a	1.368	correct	left	male
84.7474	0.5084	go	n/a	1.521	correct	left	male
89.2557	0.5083	go	n/a	1.294	correct	right	female
92.2724	0.5083	go	n/a	1.773	correct	right	female
97.2723	0.5083	succesful_stop	0.6	n/a	n/a	right	female
100.2889	0.5084	go	n/a	1.432	correct	right	female
104.7889	0.5083	go	n/a	1.242	correct	left	male
108.3055	0.5083	go	n/a	1.415	correct	left	male
113.3054	0.5084	go	n/a	1.347	correct	left	male
117.3137	0.5084	go	n/a	1.336	correct	right	female
120.822	0.5084	go	n/a	1.194	correct	left	male
125.8303	0.5083	go	n/a	1.224	correct	right	female
129.3386	0.5083	succesful_stop	0.65	n/a	n/a	right	male
132.8469	0.5083	go	n/a	1.294	correct	right	female
137.8552	0.5083	go	n/a	1.459	correct	right	female
141.3635	0.5083	succesful_stop	0.7	n/a	n/a	right	male
145.8717	0.5084	go	n/a	1.385	correct	right	female
149.38	0.5084	go	n/a	1.399	correct	left	male
153.3883	0.5083	go	n/a	1.242	correct	right	female
157.8966	0.5083	go	n/a	1.503	correct	left	male
160.9049	0.5083	go	n/a	1.321	correct	right	female
164.4215	0.5084	succesful_stop	0.75	n/a	n/a	right	female
169.4215	0.5083	go	n/a	1.315	correct	left	male
172.9298	0.5083	succesful_stop	0.8	n/a	n/a	right	male
176.938	0.5084	go	n/a	1.307	correct	left	male
180.4547	0.5083	succesful_stop	0.85	n/a	n/a	right	male
188.9629	0.5083	succesful_stop	0.9	n/a	n/a	right	female
193.4712	0.5083	succesful_stop	0.95	n/a	n/a	right	male
197.4795	0.5083	go	n/a	1.471	correct	right	female
201.4878	0.5083	go	n/a	1.423	correct	left	male
204.9961	0.5083	succesful_stop	1.0	n/a	n/a	right	female
212.521	0.5083	go	n/a	1.474	correct	left	male
221.5292	0.5083	go	n/a	1.37	correct	left	male
225.5375	0.5083	go	n/a	1.495	correct	right	female
228.5541	0.5084	go	n/a	1.393	correct	right	female
234.0541	0.5083	go	n/a	1.23	correct	left	male
237.0624	0.5083	unsuccesful_stop	1.05	1.284	correct	right	female
241.0707	0.5083	go	n/a	1.57	correct	right	female
245.0789	0.5084	succesful_stop	1.1	n/a	n/a	right	female
248.5956	0.5083	go	n/a	1.942	correct	left	male
254.0955	0.5083	go	n/a	1.544	correct	right	female
260.6204	0.5084	go	n/a	1.583	correct	right	female
266.1204	0.5083	go	n/a	1.495	correct	left	male
269.6287	0.5083	go	n/a	2.026	correct	left	male
273.6369	0.5084	succesful_stop	1.15	n/a	n/a	right	male
277.6452	0.5084	go	n/a	1.542	correct	right	female
281.6535	0.5083	succesful_stop	1.2	n/a	n/a	right	female
289.6701	0.5083	succesful_stop	1.25	n/a	n/a	right	female
293.1784	0.5083	go	n/a	1.703	correct	left	male
296.695	0.5083	go	n/a	1.558	correct	right	female
302.195	0.5083	succesful_stop	1.3	n/a	n/a	right	male
306.2032	0.5084	succesful_stop	1.35	n/a	n/a	right	female
309.2115	0.5084	go	n/a	1.989	correct	right	female
313.2198	0.5084	go	n/a	1.943	correct	left	male
318.2281	0.5083	go	n/a	1.84	correct	left	male
322.2364	0.5083	go	n/a	1.615	correct	right	female
326.2447	0.5083	succesful_stop	1.4	n/a	n/a	right	male
330.253	0.5083	succesful_stop	1.45	n/a	n/a	right	male
334.2613	0.5083	go	n/a	1.949	correct	left	male
341.2778	0.5084	go	n/a	2.258	correct	right	female
346.2861	0.5083	succesful_stop	1.5	n/a	n/a	right	male
350.2944	0.5083	go	n/a	2.12	correct	left	male
353.3027	0.5083	go	n/a	2.434	correct	right	female
358.311	0.5083	go	n/a	1.895	correct	right	female
360.8276	0.5083	succesful_stop	1.55	n/a	n/a	right	male
364.8359	0.5083	go	n/a	1.474	correct	right	female
368.8442	0.5083	succesful_stop	1.6	n/a	n/a	right	female
373.8441	0.5084	go	n/a	2.37	correct	right	female
377.8524	0.5083	succesful_stop	1.65	n/a	n/a	right	male
381.8607	0.5083	go	n/a	2.699	correct	left	male
385.869	0.5083	go	n/a	2.341	correct	right	female
389.3773	0.5083	go	n/a	2.236	correct	right	female
393.3856	0.5083	go	n/a	2.019	correct	left	male
398.3938	0.5084	go	n/a	1.979	correct	left	male
400.9105	0.5083	succesful_stop	1.7	n/a	n/a	right	male
409.4187	0.5084	go	n/a	1.525	correct	left	male
414.427	0.5083	succesful_stop	1.75	n/a	n/a	right	male
418.4353	0.5083	go	n/a	n/a	miss	right	male
424.4519	0.5083	succesful_stop	1.8	n/a	n/a	right	female
431.9685	0.5083	unsuccesful_stop	1.85	1.894	correct	right	female
439.985	0.5084	go	n/a	2.603	correct	left	male
