onset	duration	trial_type	stop_signal_delay	response_time	response_accuracy	response_hand	sex
1.0644	0.5083	go	n/a	0.639	correct	left	male
4.081	0.5083	go	n/a	0.522	correct	right	female
9.0808	0.5084	unsuccesful_stop	0.2	0.403	correct	left	male
13.589	0.5084	succesful_stop	0.2	n/a	n/a	right	female
16.5973	0.5083	go	n/a	0.63	correct	left	male
20.1139	0.5083	go	n/a	0.587	correct	right	female
25.6137	0.5083	succesful_stop	0.25	n/a	n/a	right	male
28.1303	0.5083	succesful_stop	0.3	n/a	n/a	right	male
37.6383	0.5084	succesful_stop	0.35	n/a	n/a	right	female
41.6466	0.5083	succesful_stop	0.4	n/a	n/a	right	male
45.1548	0.5083	go	n/a	0.804	correct	left	male
48.663	0.5083	go	n/a	0.751	correct	left	male
52.6712	0.5084	go	n/a	0.672	correct	left	male
57.6794	0.5084	go	n/a	0.64	correct	right	female
60.6877	0.5083	go	n/a	0.642	correct	left	male
64.2042	0.5084	go	n/a	0.655	correct	right	female
68.7041	0.5083	go	n/a	0.525	correct	left	male
72.2207	0.5083	go	n/a	0.483	correct	left	male
77.7205	0.5083	go	n/a	0.486	correct	left	male
81.2288	0.5083	go	n/a	0.511	correct	left	male
85.737	0.5083	go	n/a	0.575	correct	right	female
92.7534	0.5083	go	n/a	0.505	correct	left	male
96.7616	0.5084	unsuccesful_stop	0.45	0.529	correct	right	female
100.7699	0.5083	unsuccesful_stop	0.5	0.658	correct	left	male
104.7781	0.5083	go	n/a	0.924	correct	left	male
108.2946	0.5084	go	n/a	0.75	correct	right	female
113.7945	0.5083	unsuccesful_stop	0.55	0.601	correct	right	female
117.8027	0.5083	go	n/a	1.141	incorrect	right	male
121.8109	0.5083	go	n/a	0.699	correct	right	female
124.8192	0.5083	go	n/a	1.093	correct	right	female
128.3357	0.5083	go	n/a	0.627	correct	left	male
132.8356	0.5083	go	n/a	0.595	correct	right	female
137.3438	0.5083	go	n/a	0.648	correct	right	female
141.352	0.5083	go	n/a	0.668	correct	left	male
145.3602	0.5084	unsuccesful_stop	0.6	0.67	correct	left	male
148.3768	0.5083	go	n/a	0.967	correct	left	male
153.8767	0.5083	unsuccesful_stop	0.65	0.742	correct	left	male
157.8849	0.5083	unsuccesful_stop	0.65	0.898	correct	right	female
161.3931	0.5083	go	n/a	1.234	correct	left	male
164.9013	0.5084	go	n/a	1.294	correct	left	male
168.9096	0.5083	go	n/a	0.894	correct	right	female
173.9178	0.5083	go	n/a	0.822	correct	left	male
177.926	0.5083	go	n/a	1.078	correct	left	male
181.4342	0.5083	go	n/a	1.336	correct	left	male
184.4508	0.5083	succesful_stop	0.6	n/a	n/a	right	female
188.9507	0.5083	go	n/a	1.049	correct	right	female
193.9588	0.5084	go	n/a	0.827	correct	left	male
196.4754	0.5084	succesful_stop	0.6	n/a	n/a	right	female
201.9753	0.5083	unsuccesful_stop	0.65	0.69	correct	right	female
204.4919	0.5083	go	n/a	1.132	correct	left	male
208.9917	0.5084	go	n/a	0.95	correct	right	female
212.5083	0.5083	go	n/a	1.176	correct	left	male
216.5165	0.5083	go	n/a	0.92	correct	left	male
225.5246	0.5083	succesful_stop	0.65	n/a	n/a	right	male
229.0328	0.5083	go	n/a	0.879	correct	left	male
233.041	0.5084	go	n/a	1.17	correct	right	female
237.0493	0.5083	go	n/a	1.26	correct	left	male
242.0575	0.5083	succesful_stop	0.7	n/a	n/a	right	female
246.0657	0.5083	go	n/a	1.271	correct	right	female
249.0739	0.5083	succesful_stop	0.75	n/a	n/a	right	female
253.5821	0.5083	go	n/a	2.218	incorrect	left	female
257.5903	0.5084	go	n/a	0.98	correct	left	male
266.1068	0.5083	go	n/a	1.046	correct	right	female
268.6234	0.5083	go	n/a	0.583	correct	left	male
274.1232	0.5083	go	n/a	0.908	correct	right	female
278.1314	0.5083	unsuccesful_stop	0.8	0.711	correct	right	female
281.6396	0.5084	unsuccesful_stop	0.85	0.937	incorrect	right	male
285.6479	0.5083	go	n/a	1.519	correct	right	female
289.1561	0.5083	go	n/a	1.232	correct	right	female
294.1643	0.5083	succesful_stop	0.9	n/a	n/a	right	female
300.6891	0.5083	go	n/a	1.075	correct	right	female
305.689	0.5083	go	n/a	1.325	correct	right	female
309.1972	0.5083	go	n/a	1.537	correct	right	female
313.2054	0.5083	go	n/a	1.635	correct	right	female
317.7136	0.5083	go	n/a	1.922	correct	right	female
321.2218	0.5084	succesful_stop	0.95	n/a	n/a	right	female
328.7466	0.5083	succesful_stop	1.0	n/a	n/a	right	female
332.7548	0.5084	go	n/a	1.451	correct	right	female
337.7547	0.5083	succesful_stop	1.05	n/a	n/a	right	female
342.2629	0.5083	go	n/a	1.528	correct	right	female
345.2711	0.5084	go	n/a	1.35	correct	left	male
349.2794	0.5083	go	n/a	1.476	incorrect	left	female
353.7876	0.5083	unsuccesful_stop	1.1	0.979	correct	left	male
358.2958	0.5083	go	n/a	1.443	correct	right	female
360.8124	0.5083	go	n/a	1.514	incorrect	left	female
364.8206	0.5083	succesful_stop	1.15	n/a	n/a	right	male
370.3204	0.5083	go	n/a	1.856	correct	left	male
377.8369	0.5083	succesful_stop	1.2	n/a	n/a	right	female
380.8534	0.5084	succesful_stop	1.25	n/a	n/a	right	female
384.8617	0.5083	unsuccesful_stop	1.3	1.313	correct	right	female
390.3615	0.5083	go	n/a	2.036	correct	right	female
393.8697	0.5084	go	n/a	1.886	incorrect	left	female
397.878	0.5083	go	n/a	2.478	correct	left	male
401.8862	0.5083	unsuccesful_stop	1.35	1.494	correct	right	female
405.8944	0.5083	succesful_stop	1.4	n/a	n/a	right	female
414.4108	0.5083	go	n/a	1.739	correct	right	female
417.919	0.5084	go	n/a	1.801	correct	left	male
421.9273	0.5083	go	n/a	1.807	correct	left	male
425.9355	0.5083	succesful_stop	1.45	n/a	n/a	right	female
433.9519	0.5083	go	n/a	0.97	correct	right	female
