onset	duration	trial_type	stop_signal_delay	response_time	response_accuracy	response_hand	sex
1.5465	0.5083	go	n/a	0.837	correct	right	female
8.5629	0.5084	unsuccesful_stop	0.2	0.772	correct	right	female
13.5711	0.5084	unsuccesful_stop	0.2	0.886	correct	right	female
17.5794	0.5083	unsuccesful_stop	0.15	0.761	correct	right	female
24.1042	0.5083	go	n/a	0.791	correct	right	female
28.6041	0.5083	unsuccesful_stop	0.1	0.593	incorrect	left	female
33.1123	0.5083	go	n/a	0.72	correct	right	female
37.6205	0.5083	unsuccesful_stop	0.05	1.058	incorrect	left	female
40.6288	0.5083	go	n/a	0.722	correct	left	male
44.637	0.5083	go	n/a	0.611	correct	left	male
49.1452	0.5083	go	n/a	0.888	correct	left	male
53.1534	0.5084	unsuccesful_stop	0.05	0.599	correct	left	male
56.6617	0.5083	go	n/a	0.946	correct	left	male
61.6699	0.5083	unsuccesful_stop	0.05	0.868	correct	right	female
64.1865	0.5083	go	n/a	0.707	correct	right	female
69.6864	0.5083	go	n/a	0.808	correct	left	male
77.2028	0.5083	go	n/a	0.694	correct	right	female
81.2111	0.5083	unsuccesful_stop	0.05	0.622	correct	right	female
85.2193	0.5083	go	n/a	0.51	correct	right	female
88.2359	0.5083	go	n/a	0.737	correct	right	female
93.2357	0.5084	go	n/a	0.863	correct	left	male
100.7522	0.5083	unsuccesful_stop	0.05	0.721	correct	left	male
105.2604	0.5083	go	n/a	0.767	correct	left	male
108.277	0.5083	go	n/a	0.656	correct	left	male
116.2935	0.5083	go	n/a	0.74	correct	right	female
121.7933	0.5083	unsuccesful_stop	0.05	0.617	correct	right	female
128.8098	0.5083	go	n/a	0.697	correct	left	male
133.318	0.5083	unsuccesful_stop	0.05	0.624	correct	left	male
137.3263	0.5083	unsuccesful_stop	0.05	0.796	incorrect	left	female
144.3511	0.5083	go	n/a	0.583	correct	right	female
149.8509	0.5084	go	n/a	0.548	correct	right	female
153.8592	0.5083	go	n/a	0.623	correct	right	female
161.3756	0.5083	go	n/a	0.642	correct	left	male
164.8839	0.5083	unsuccesful_stop	0.05	1.293	incorrect	left	female
172.9003	0.5084	go	n/a	0.827	incorrect	left	female
176.9086	0.5083	go	n/a	n/a	miss	right	female
182.4334	0.5083	go	n/a	0.725	correct	left	male
186.9333	0.5083	go	n/a	0.724	correct	left	male
191.4415	0.5083	go	n/a	0.802	correct	left	male
194.4581	0.5083	go	n/a	1.046	correct	right	female
199.458	0.5083	unsuccesful_stop	0.05	0.578	correct	left	male
202.9662	0.5083	go	n/a	0.917	correct	right	female
206.9744	0.5084	go	n/a	0.754	correct	left	male
211.4827	0.5083	go	n/a	0.603	correct	right	female
214.4992	0.5084	unsuccesful_stop	0.05	1.08	correct	left	male
219.9991	0.5083	unsuccesful_stop	0.05	0.968	correct	right	female
223.0074	0.5083	go	n/a	0.649	correct	right	female
227.5156	0.5083	go	n/a	0.83	correct	left	male
230.5322	0.5083	unsuccesful_stop	0.05	0.715	correct	left	male
239.0403	0.5083	go	n/a	0.958	correct	left	male
244.0485	0.5083	go	n/a	0.638	correct	left	male
248.0567	0.5083	unsuccesful_stop	0.05	0.798	correct	right	female
252.0649	0.5084	go	n/a	0.637	correct	left	male
255.0732	0.5083	go	n/a	0.594	correct	left	male
259.5814	0.5083	go	n/a	0.664	correct	right	female
262.598	0.5083	go	n/a	0.549	correct	left	male
267.5979	0.5083	go	n/a	0.754	correct	left	male
270.6145	0.5083	go	n/a	0.62	correct	right	female
276.1143	0.5083	go	n/a	0.774	correct	right	female
279.6226	0.5083	go	n/a	0.568	correct	left	male
282.6391	0.5084	unsuccesful_stop	0.05	0.574	correct	left	male
292.1472	0.5083	go	n/a	0.85	correct	left	male
294.6638	0.5083	unsuccesful_stop	0.05	0.554	correct	left	male
304.1719	0.5083	go	n/a	1.215	incorrect	left	female
307.6802	0.5083	go	n/a	1.17	correct	left	male
312.1884	0.5083	go	n/a	0.803	correct	left	male
315.1966	0.5083	go	n/a	n/a	miss	right	female
322.2131	0.5083	go	n/a	0.638	correct	right	female
329.2296	0.5083	go	n/a	0.728	correct	right	female
334.2378	0.5083	go	n/a	n/a	miss	right	male
339.7543	0.5083	go	n/a	0.568	correct	right	female
343.7626	0.5083	go	n/a	0.83	correct	left	male
348.2708	0.5083	go	n/a	0.765	correct	right	female
352.279	0.5083	unsuccesful_stop	0.05	0.585	correct	left	male
356.2872	0.5083	unsuccesful_stop	0.05	0.565	correct	left	male
358.8038	0.5083	go	n/a	0.515	correct	left	male
363.8037	0.5083	unsuccesful_stop	0.05	0.606	correct	left	male
367.8119	0.5083	unsuccesful_stop	0.05	0.771	correct	right	female
375.3284	0.5083	go	n/a	0.863	correct	left	male
379.3366	0.5083	go	n/a	n/a	miss	right	female
385.8531	0.5083	go	n/a	0.648	correct	right	female
388.8697	0.5083	unsuccesful_stop	0.05	0.762	correct	right	female
393.8696	0.5083	unsuccesful_stop	0.05	0.577	correct	left	male
397.3778	0.5083	unsuccesful_stop	0.05	0.615	correct	right	female
401.886	0.5084	unsuccesful_stop	0.05	0.533	correct	left	male
405.3943	0.5083	go	n/a	0.94	correct	right	female
410.4025	0.5083	go	n/a	1.642	incorrect	left	female
414.4107	0.5083	go	n/a	n/a	miss	right	female
419.9272	0.5084	unsuccesful_stop	0.05	0.717	correct	left	male
424.4354	0.5084	go	n/a	0.611	correct	left	male
427.9437	0.5083	unsuccesful_stop	0.05	0.693	correct	right	female
431.4519	0.5083	unsuccesful_stop	0.05	0.847	correct	right	female
435.4602	0.5083	go	n/a	0.789	correct	left	male
439.9684	0.5083	unsuccesful_stop	0.05	0.523	correct	right	female
443.4766	0.5083	unsuccesful_stop	0.05	0.631	correct	left	male
447.9848	0.5084	go	n/a	0.635	correct	left	male
451.0014	0.5083	go	n/a	0.9	incorrect	right	male
456.0013	0.5083	unsuccesful_stop	0.05	0.55	correct	left	male
460.5095	0.5083	go	n/a	1.141	correct	right	female
463.0261	0.5083	unsuccesful_stop	0.05	0.868	correct	right	female
