onset	duration	trial_type	stop_signal_delay	response_time	response_accuracy	response_hand	sex
0.5447	0.5083	go	n/a	1.084	correct	right	female
5.053	0.5083	succesful_stop	0.2	n/a	n/a	right	male
8.5612	0.5083	go	n/a	0.641	correct	right	female
13.0694	0.5084	go	n/a	0.699	correct	left	male
17.0777	0.5083	succesful_stop	0.25	n/a	n/a	right	male
20.5859	0.5084	go	n/a	0.561	correct	left	male
28.1108	0.5083	go	n/a	0.763	correct	right	female
32.119	0.5083	go	n/a	0.763	correct	right	female
36.1272	0.5084	go	n/a	0.696	correct	left	male
44.6354	0.5083	succesful_stop	0.3	n/a	n/a	right	female
49.6436	0.5083	go	n/a	0.524	correct	left	male
52.6519	0.5083	go	n/a	0.687	correct	right	female
56.6601	0.5083	go	n/a	0.667	correct	right	female
65.6766	0.5083	go	n/a	0.676	correct	left	male
68.6848	0.5083	go	n/a	0.682	correct	left	male
73.1931	0.5083	succesful_stop	0.35	n/a	n/a	right	female
76.2097	0.5083	succesful_stop	0.4	n/a	n/a	right	female
80.2179	0.5083	go	n/a	0.596	correct	right	female
84.2261	0.5084	go	n/a	0.686	correct	right	female
88.2344	0.5083	go	n/a	0.691	correct	right	female
93.7342	0.5084	succesful_stop	0.45	n/a	n/a	right	male
97.7425	0.5083	unsuccesful_stop	0.5	0.462	correct	right	female
101.2507	0.5084	unsuccesful_stop	0.55	0.724	correct	right	female
105.759	0.5083	go	n/a	0.921	correct	right	female
109.7672	0.5083	go	n/a	0.777	correct	left	male
112.7755	0.5083	go	n/a	0.791	correct	right	female
116.2921	0.5083	unsuccesful_stop	0.6	0.752	correct	left	male
121.7919	0.5084	go	n/a	0.937	correct	right	female
124.3085	0.5084	unsuccesful_stop	0.65	0.798	correct	left	male
128.8084	0.5084	go	n/a	0.884	correct	right	female
136.3333	0.5083	go	n/a	0.89	correct	left	male
140.8332	0.5083	unsuccesful_stop	0.7	0.762	correct	right	female
145.8414	0.5083	go	n/a	1.004	correct	right	female
148.358	0.5083	go	n/a	0.951	correct	right	female
153.3579	0.5083	go	n/a	0.93	correct	left	male
156.3745	0.5083	unsuccesful_stop	0.75	0.826	correct	left	male
165.8826	0.5083	go	n/a	0.951	correct	right	female
172.4074	0.5084	go	n/a	0.959	correct	right	female
177.9073	0.5083	unsuccesful_stop	0.8	0.857	correct	left	male
181.9155	0.5084	go	n/a	1.075	correct	left	male
185.4238	0.5083	go	n/a	0.786	correct	left	male
188.9321	0.5083	go	n/a	0.871	correct	right	female
192.4486	0.5084	unsuccesful_stop	0.8	0.87	correct	right	female
197.9485	0.5083	unsuccesful_stop	0.75	0.856	correct	left	male
200.4651	0.5083	succesful_stop	0.7	n/a	n/a	right	female
204.965	0.5083	unsuccesful_stop	0.65	0.822	correct	left	male
213.9815	0.5083	succesful_stop	0.6	n/a	n/a	right	female
216.9897	0.5084	go	n/a	1.175	correct	right	female
220.5063	0.5083	go	n/a	1.044	correct	left	male
226.0062	0.5083	succesful_stop	0.55	n/a	n/a	right	female
228.5228	0.5083	go	n/a	0.844	correct	left	male
233.0227	0.5083	go	n/a	1.017	correct	right	female
238.0309	0.5083	go	n/a	0.779	correct	left	male
241.5392	0.5083	succesful_stop	0.55	n/a	n/a	right	female
244.5558	0.5083	go	n/a	0.858	correct	right	female
250.0556	0.5084	go	n/a	0.892	correct	left	male
254.0639	0.5083	succesful_stop	0.6	n/a	n/a	right	male
256.5805	0.5083	go	n/a	0.829	correct	left	male
261.5804	0.5083	succesful_stop	0.65	n/a	n/a	right	male
265.0886	0.5083	go	n/a	0.937	correct	left	male
270.0968	0.5084	go	n/a	0.88	correct	left	male
278.1133	0.5083	succesful_stop	0.7	n/a	n/a	right	female
281.6216	0.5083	go	n/a	0.932	correct	left	male
286.1298	0.5083	unsuccesful_stop	0.75	0.807	correct	left	male
290.138	0.5084	go	n/a	0.998	correct	left	male
293.1463	0.5083	go	n/a	1.02	correct	left	male
297.6545	0.5084	go	n/a	0.928	correct	right	female
305.171	0.5084	unsuccesful_stop	0.8	0.966	correct	right	female
308.6876	0.5083	go	n/a	0.888	correct	right	female
313.6875	0.5083	go	n/a	1.003	correct	left	male
318.1957	0.5084	go	n/a	0.994	correct	left	male
320.7123	0.5084	go	n/a	1.087	correct	right	female
326.2122	0.5083	go	n/a	0.835	correct	left	male
330.2205	0.5083	go	n/a	0.672	correct	right	female
333.7287	0.5083	unsuccesful_stop	0.85	0.791	correct	left	male
336.7453	0.5083	unsuccesful_stop	0.9	0.899	correct	right	female
341.7452	0.5083	go	n/a	0.48	correct	left	male
346.2534	0.5083	go	n/a	0.804	correct	right	female
349.2617	0.5083	unsuccesful_stop	0.9	0.954	correct	left	male
353.7699	0.5083	unsuccesful_stop	0.85	0.836	correct	left	male
356.7865	0.5083	go	n/a	0.833	correct	left	male
366.2946	0.5083	go	n/a	1.081	correct	left	male
368.8112	0.5083	go	n/a	0.81	correct	left	male
373.8111	0.5083	go	n/a	0.988	correct	left	male
378.3193	0.5084	go	n/a	0.822	correct	left	male
381.8276	0.5083	go	n/a	0.776	correct	left	male
386.3358	0.5083	unsuccesful_stop	0.8	0.691	correct	left	male
388.8524	0.5084	go	n/a	0.767	correct	left	male
396.8689	0.5083	go	n/a	0.794	correct	left	male
400.8772	0.5083	unsuccesful_stop	0.75	0.771	correct	right	female
405.3771	0.5083	go	n/a	0.871	correct	left	male
409.8853	0.5083	go	n/a	1.045	correct	left	male
412.9019	0.5083	go	n/a	0.782	correct	left	male
417.4018	0.5083	go	n/a	0.608	correct	left	male
420.9184	0.5083	go	n/a	0.578	correct	left	male
425.4183	0.5083	unsuccesful_stop	0.7	0.716	correct	right	female
429.9265	0.5083	go	n/a	0.71	correct	right	female
433.4347	0.5084	succesful_stop	0.65	n/a	n/a	right	female
437.443	0.5083	go	n/a	0.697	correct	right	female
441.4512	0.5083	unsuccesful_stop	0.6	0.638	correct	left	male
