onset	duration	trial_type	stop_signal_delay	response_time	response_accuracy	response_hand	sex
0.6457	0.5083	go	n/a	0.968	incorrect	right	male
4.6539	0.5083	go	n/a	0.677	correct	left	male
8.1705	0.5083	go	n/a	0.757	correct	right	female
13.6703	0.5083	succesful_stop	0.2	n/a	n/a	right	female
17.6785	0.5083	go	n/a	0.687	correct	left	male
20.6868	0.5083	go	n/a	0.521	correct	left	male
24.2033	0.5083	succesful_stop	0.25	n/a	n/a	right	male
29.7032	0.5083	succesful_stop	0.3	n/a	n/a	right	female
32.7114	0.5083	go	n/a	0.736	correct	left	male
37.7196	0.5083	go	n/a	0.62	correct	left	male
41.2278	0.5083	go	n/a	0.703	correct	left	male
45.736	0.5083	go	n/a	0.649	correct	right	female
49.2443	0.5083	succesful_stop	0.35	n/a	n/a	right	male
53.2525	0.5083	succesful_stop	0.4	n/a	n/a	right	male
56.7607	0.5083	go	n/a	0.603	correct	left	male
61.7689	0.5083	go	n/a	0.753	correct	right	female
64.7771	0.5083	go	n/a	0.688	correct	right	female
69.2853	0.5084	go	n/a	0.845	incorrect	right	male
72.3019	0.5083	go	n/a	0.648	correct	left	male
76.3101	0.5083	go	n/a	0.767	correct	right	female
80.3183	0.5084	go	n/a	0.677	correct	left	male
85.3182	0.5083	go	n/a	0.781	correct	right	female
88.3348	0.5083	go	n/a	0.636	correct	left	male
92.8346	0.5084	go	n/a	0.628	correct	left	male
96.3512	0.5083	go	n/a	0.663	correct	right	female
101.3511	0.5083	go	n/a	0.602	correct	right	female
104.8593	0.5083	go	n/a	0.624	correct	right	female
109.3675	0.5083	unsuccesful_stop	0.45	0.589	correct	left	male
112.3841	0.5083	succesful_stop	0.5	n/a	n/a	right	female
117.8839	0.5083	go	n/a	1.227	correct	right	female
121.3921	0.5084	go	n/a	0.65	correct	left	male
125.9003	0.5084	go	n/a	1.332	correct	right	female
128.9086	0.5083	go	n/a	0.735	correct	left	male
132.9168	0.5083	go	n/a	0.909	correct	right	female
137.925	0.5083	go	n/a	0.941	correct	right	female
144.4498	0.5083	go	n/a	0.711	correct	left	male
149.4497	0.5083	unsuccesful_stop	0.55	0.581	correct	right	female
157.9661	0.5083	succesful_stop	0.6	n/a	n/a	right	male
161.9743	0.5083	succesful_stop	0.65	n/a	n/a	right	female
164.4909	0.5083	succesful_stop	0.7	n/a	n/a	right	female
169.4907	0.5084	go	n/a	1.142	correct	left	male
173.9989	0.5084	go	n/a	1.141	incorrect	left	female
176.5155	0.5083	go	n/a	1.013	correct	left	male
181.0154	0.5083	go	n/a	0.792	correct	left	male
186.0236	0.5083	unsuccesful_stop	0.75	0.741	correct	left	male
190.0318	0.5083	go	n/a	1.083	correct	left	male
193.54	0.5084	go	n/a	1.255	correct	right	female
196.5566	0.5083	go	n/a	1.171	correct	right	female
201.5565	0.5083	go	n/a	0.956	correct	left	male
205.5647	0.5083	go	n/a	1.07	correct	right	female
209.5729	0.5083	succesful_stop	0.8	n/a	n/a	right	male
213.5811	0.5083	go	n/a	1.069	correct	left	male
218.0893	0.5083	go	n/a	1.093	correct	right	female
220.6059	0.5083	go	n/a	1.053	correct	right	female
225.1058	0.5083	go	n/a	1.119	incorrect	right	male
229.114	0.5083	go	n/a	1.185	correct	right	female
233.1222	0.5083	go	n/a	1.093	correct	left	male
238.1304	0.5083	unsuccesful_stop	0.85	1.196	correct	left	male
241.1386	0.5084	unsuccesful_stop	0.9	1.053	correct	left	male
245.6468	0.5084	succesful_stop	0.95	n/a	n/a	right	female
248.6634	0.5083	succesful_stop	1.0	n/a	n/a	right	female
254.1633	0.5083	succesful_stop	1.05	n/a	n/a	right	female
261.1797	0.5083	go	n/a	1.571	correct	right	female
265.6879	0.5083	succesful_stop	1.1	n/a	n/a	right	male
269.6961	0.5084	go	n/a	2.282	correct	left	male
273.2044	0.5083	go	n/a	1.497	correct	left	male
277.7126	0.5083	go	n/a	1.596	correct	right	female
281.7208	0.5083	go	n/a	1.733	correct	right	female
284.7374	0.5083	succesful_stop	1.15	n/a	n/a	right	female
289.2372	0.5084	succesful_stop	1.2	n/a	n/a	right	female
292.7538	0.5083	succesful_stop	1.25	n/a	n/a	right	male
297.2537	0.5083	go	n/a	1.819	correct	left	male
301.7619	0.5083	succesful_stop	1.3	n/a	n/a	right	female
305.2701	0.5083	succesful_stop	1.35	n/a	n/a	right	male
309.7783	0.5083	go	n/a	2.149	correct	left	male
314.2865	0.5083	go	n/a	2.414	correct	right	female
317.2947	0.5084	go	n/a	1.857	correct	right	female
321.803	0.5083	unsuccesful_stop	1.4	1.571	correct	right	female
325.3112	0.5083	go	n/a	2.035	correct	left	male
329.8194	0.5083	succesful_stop	1.45	n/a	n/a	right	male
334.3276	0.5083	go	n/a	1.941	correct	left	male
337.8358	0.5083	go	n/a	1.95	correct	left	male
342.344	0.5083	go	n/a	1.809	correct	left	male
345.3523	0.5083	go	n/a	1.47	correct	right	female
350.3604	0.5084	go	n/a	1.854	correct	right	female
353.8687	0.5083	go	n/a	1.913	correct	left	male
358.3769	0.5083	go	n/a	1.583	correct	right	female
361.3851	0.5083	go	n/a	1.788	correct	right	female
365.3933	0.5084	succesful_stop	1.5	n/a	n/a	right	female
368.9099	0.5083	unsuccesful_stop	1.55	1.625	correct	left	male
377.418	0.5083	succesful_stop	1.6	n/a	n/a	right	female
381.9262	0.5083	go	n/a	2.266	correct	right	female
385.4344	0.5083	go	n/a	1.838	correct	right	female
389.4426	0.5084	go	n/a	1.958	correct	left	male
394.4508	0.5083	succesful_stop	1.65	n/a	n/a	right	female
398.459	0.5084	go	n/a	2.041	correct	left	male
400.9756	0.5084	go	n/a	1.835	correct	right	female
405.4755	0.5083	succesful_stop	1.7	n/a	n/a	right	female
409.9837	0.5083	go	n/a	2.465	correct	right	female
414.4919	0.5083	succesful_stop	1.75	n/a	n/a	right	female
