onset	duration	trial_type	stop_signal_delay	response_time	response_accuracy	response_hand	sex
0.5662	0.5083	go	n/a	1.043	correct	left	male
4.5744	0.5084	succesful_stop	0.2	n/a	n/a	right	male
8.091	0.5084	go	n/a	0.861	incorrect	right	male
13.0909	0.5083	succesful_stop	0.25	n/a	n/a	right	female
16.1075	0.5083	go	n/a	0.824	correct	left	male
21.1074	0.5083	go	n/a	0.744	correct	right	female
24.124	0.5083	go	n/a	0.804	correct	left	male
28.1322	0.5084	succesful_stop	0.3	n/a	n/a	right	male
33.6321	0.5083	unsuccesful_stop	0.35	0.884	correct	right	female
37.6403	0.5084	go	n/a	1.344	correct	right	female
40.157	0.5083	go	n/a	1.222	correct	right	female
44.6569	0.5083	go	n/a	1.097	correct	left	male
48.1734	0.5084	succesful_stop	0.4	n/a	n/a	right	male
52.6733	0.5084	go	n/a	1.392	correct	right	female
56.1899	0.5083	go	n/a	1.066	correct	left	male
65.698	0.5084	unsuccesful_stop	0.45	1.29	correct	left	male
68.2146	0.5084	go	n/a	0.971	correct	right	female
72.2229	0.5083	go	n/a	0.971	correct	left	male
77.7228	0.5083	go	n/a	1.085	correct	right	female
81.231	0.5083	go	n/a	1.185	correct	right	female
85.2392	0.5084	go	n/a	1.026	correct	left	male
88.7475	0.5083	succesful_stop	0.5	n/a	n/a	right	female
93.7557	0.5083	go	n/a	1.307	correct	right	female
101.7722	0.5083	go	n/a	1.271	correct	left	male
104.2888	0.5083	go	n/a	0.942	correct	right	female
108.7887	0.5083	succesful_stop	0.55	n/a	n/a	right	female
113.2969	0.5083	unsuccesful_stop	0.6	0.976	correct	left	male
117.3052	0.5083	go	n/a	1.102	correct	left	male
121.3134	0.5083	succesful_stop	0.65	n/a	n/a	right	male
124.33	0.5083	go	n/a	1.042	correct	right	female
128.8299	0.5083	go	n/a	1.088	correct	left	male
137.8464	0.5083	go	n/a	1.068	correct	left	male
145.3629	0.5083	go	n/a	0.99	correct	right	female
148.3794	0.5084	succesful_stop	0.7	n/a	n/a	right	female
153.3793	0.5083	go	n/a	1.218	correct	left	male
156.8876	0.5083	go	n/a	1.18	correct	left	male
160.4042	0.5083	succesful_stop	0.75	n/a	n/a	right	male
164.4124	0.5083	go	n/a	1.058	correct	right	female
168.9123	0.5083	go	n/a	1.277	correct	right	female
173.4205	0.5084	succesful_stop	0.8	n/a	n/a	right	male
176.4371	0.5083	go	n/a	1.589	correct	right	female
180.4454	0.5083	go	n/a	1.35	correct	left	male
189.9535	0.5083	go	n/a	1.12	correct	right	female
193.9617	0.5083	go	n/a	1.193	correct	right	female
197.97	0.5083	go	n/a	0.81	correct	right	female
200.9782	0.5083	go	n/a	1.063	correct	right	female
204.9865	0.5083	succesful_stop	0.85	n/a	n/a	right	female
209.9947	0.5083	succesful_stop	0.9	n/a	n/a	right	female
213.0029	0.5084	go	n/a	0.925	correct	left	male
216.5195	0.5084	go	n/a	1.171	correct	left	male
221.5194	0.5083	go	n/a	1.184	correct	right	female
228.5443	0.5083	go	n/a	1.122	correct	right	female
233.0441	0.5084	go	n/a	1.576	correct	left	male
236.5607	0.5084	go	n/a	1.14	correct	right	female
241.0606	0.5084	unsuccesful_stop	0.95	0.918	correct	right	female
245.0689	0.5083	go	n/a	1.145	correct	right	female
249.5771	0.5083	go	n/a	1.075	correct	left	male
253.5853	0.5084	go	n/a	1.181	correct	left	male
261.6018	0.5083	go	n/a	1.485	correct	right	female
265.6101	0.5083	succesful_stop	1.0	n/a	n/a	right	female
270.1183	0.5083	go	n/a	0.803	correct	left	male
272.6349	0.5083	go	n/a	1.173	correct	left	male
277.1348	0.5083	go	n/a	1.174	correct	left	male
282.143	0.5083	go	n/a	1.368	correct	left	male
285.6513	0.5083	go	n/a	1.573	correct	right	female
288.6679	0.5083	go	n/a	1.602	correct	left	male
294.1677	0.5084	unsuccesful_stop	1.05	1.121	correct	right	female
297.676	0.5083	succesful_stop	1.1	n/a	n/a	right	female
302.1842	0.5083	unsuccesful_stop	1.15	1.164	correct	left	male
305.1925	0.5083	go	n/a	1.603	correct	right	female
313.7089	0.5084	unsuccesful_stop	1.2	1.353	correct	left	male
318.2172	0.5083	succesful_stop	1.25	n/a	n/a	right	female
320.7338	0.5083	succesful_stop	1.3	n/a	n/a	right	female
324.742	0.5083	go	n/a	1.387	correct	left	male
328.7503	0.5083	succesful_stop	1.35	n/a	n/a	right	male
336.7667	0.5084	go	n/a	1.25	correct	right	female
342.2666	0.5083	go	n/a	1.689	correct	left	male
344.7832	0.5083	succesful_stop	1.4	n/a	n/a	right	male
348.7915	0.5083	go	n/a	2.283	correct	left	male
356.8079	0.5084	unsuccesful_stop	1.45	1.489	correct	right	female
362.3078	0.5083	unsuccesful_stop	1.5	1.242	correct	left	male
366.3161	0.5083	go	n/a	2.074	correct	left	male
370.3243	0.5083	go	n/a	1.839	correct	left	male
372.8409	0.5083	go	n/a	1.605	correct	right	female
377.8408	0.5083	go	n/a	1.059	correct	left	male
381.849	0.5083	go	n/a	1.783	correct	left	male
385.8573	0.5083	go	n/a	2.009	correct	left	male
389.3655	0.5083	go	n/a	2.229	correct	left	male
392.8821	0.5083	go	n/a	2.339	correct	left	male
398.382	0.5083	go	n/a	1.564	correct	right	female
401.8902	0.5083	succesful_stop	1.55	n/a	n/a	right	female
405.8985	0.5083	go	n/a	1.959	correct	left	male
408.9151	0.5083	go	n/a	2.67	correct	left	male
413.9149	0.5084	go	n/a	2.889	correct	left	male
416.9315	0.5084	go	n/a	1.323	correct	right	female
420.9398	0.5083	go	n/a	1.126	correct	right	female
424.948	0.5083	go	n/a	1.521	correct	right	female
429.9479	0.5083	unsuccesful_stop	1.6	1.085	correct	right	female
433.4562	0.5083	go	n/a	2.174	correct	right	female
437.9644	0.5083	unsuccesful_stop	1.65	2.126	correct	left	male
