onset	duration	trial_type	stop_signal_delay	response_time	response_accuracy	response_hand	sex
0.5503	0.5083	go	n/a	0.695	correct	right	female
5.5585	0.5083	go	n/a	0.732	correct	left	male
9.5667	0.5083	go	n/a	1.032	correct	left	male
13.0749	0.5083	unsuccesful_stop	0.2	0.567	correct	right	female
16.5831	0.5084	succesful_stop	0.2	n/a	n/a	right	male
20.0997	0.5083	succesful_stop	0.25	n/a	n/a	right	male
24.1079	0.5083	go	n/a	1.053	correct	left	male
28.6078	0.5083	go	n/a	1.203	correct	right	female
33.616	0.5083	succesful_stop	0.3	n/a	n/a	right	female
37.1242	0.5083	go	n/a	0.992	correct	left	male
40.1408	0.5083	go	n/a	0.975	correct	left	male
44.149	0.5083	succesful_stop	0.35	n/a	n/a	right	male
48.1572	0.5083	go	n/a	1.06	correct	right	female
53.1571	0.5083	succesful_stop	0.4	n/a	n/a	right	female
56.1737	0.5083	go	n/a	1.035	correct	right	female
60.1819	0.5083	go	n/a	0.947	correct	left	male
65.6817	0.5083	succesful_stop	0.45	n/a	n/a	right	female
68.69	0.5083	go	n/a	0.865	correct	left	male
76.7064	0.5083	go	n/a	1.273	correct	right	female
81.2146	0.5083	go	n/a	1.277	correct	right	female
84.7228	0.5083	succesful_stop	0.5	n/a	n/a	right	male
89.731	0.5083	go	n/a	1.255	correct	left	male
93.7392	0.5083	go	n/a	1.169	correct	left	male
96.2558	0.5083	go	n/a	1.028	correct	left	male
104.2722	0.5084	go	n/a	1.144	correct	right	female
109.2721	0.5083	succesful_stop	0.55	n/a	n/a	right	female
113.7803	0.5083	go	n/a	0.731	correct	right	female
117.2885	0.5083	go	n/a	0.701	correct	left	male
121.7967	0.5083	go	n/a	1.007	correct	right	female
125.8049	0.5084	succesful_stop	0.6	n/a	n/a	right	male
128.3215	0.5084	go	n/a	1.078	correct	right	female
133.8214	0.5083	go	n/a	1.116	correct	left	male
136.8296	0.5083	go	n/a	1.29	correct	left	male
140.8378	0.5084	go	n/a	1.14	correct	left	male
149.8542	0.5084	succesful_stop	0.65	n/a	n/a	right	female
152.3708	0.5083	go	n/a	0.891	correct	left	male
157.8707	0.5083	unsuccesful_stop	0.7	0.87	correct	left	male
161.8789	0.5083	go	n/a	1.123	correct	right	female
164.8871	0.5084	unsuccesful_stop	0.75	0.974	correct	right	female
169.3953	0.5083	succesful_stop	0.8	n/a	n/a	right	male
172.4119	0.5083	go	n/a	1.21	correct	left	male
177.9118	0.5083	succesful_stop	0.85	n/a	n/a	right	male
181.42	0.5083	go	n/a	1.641	correct	left	male
185.4282	0.5083	go	n/a	1.291	correct	right	female
189.4364	0.5083	succesful_stop	0.9	n/a	n/a	right	male
193.9446	0.5083	go	n/a	1.551	correct	left	male
196.4612	0.5083	go	n/a	1.519	correct	left	male
204.9693	0.5083	go	n/a	1.312	correct	right	female
212.9857	0.5083	go	n/a	1.336	correct	left	male
216.5023	0.5083	succesful_stop	0.95	n/a	n/a	right	female
220.5105	0.5083	succesful_stop	1.0	n/a	n/a	right	female
225.0104	0.5083	go	n/a	1.485	correct	left	male
230.0186	0.5083	go	n/a	1.884	correct	right	female
237.035	0.5083	go	n/a	1.462	correct	right	female
246.0514	0.5083	succesful_stop	1.05	n/a	n/a	right	male
248.568	0.5083	go	n/a	1.539	correct	right	female
253.0679	0.5083	succesful_stop	1.1	n/a	n/a	right	female
258.0761	0.5083	go	n/a	1.402	correct	left	male
260.5927	0.5083	succesful_stop	1.15	n/a	n/a	right	male
268.6091	0.5083	succesful_stop	1.2	n/a	n/a	right	female
273.6089	0.5084	succesful_stop	1.25	n/a	n/a	right	female
276.6255	0.5083	succesful_stop	1.3	n/a	n/a	right	female
282.1254	0.5083	go	n/a	1.021	correct	right	female
284.642	0.5083	go	n/a	1.199	correct	left	male
289.1418	0.5083	go	n/a	1.162	correct	right	female
292.6584	0.5083	unsuccesful_stop	1.35	1.228	correct	right	female
298.1582	0.5083	go	n/a	1.789	correct	right	female
301.6665	0.5083	go	n/a	1.509	correct	right	female
306.1746	0.5084	go	n/a	2.097	correct	right	female
308.6912	0.5084	go	n/a	1.512	correct	left	male
313.6911	0.5083	go	n/a	1.83	correct	left	male
318.1993	0.5083	go	n/a	2.084	correct	right	female
321.7075	0.5084	go	n/a	1.494	correct	right	female
324.7241	0.5083	go	n/a	1.542	correct	right	female
329.224	0.5083	go	n/a	1.422	correct	left	male
333.7322	0.5083	go	n/a	1.022	correct	left	male
338.2404	0.5083	unsuccesful_stop	1.4	1.072	correct	left	male
342.2486	0.5083	succesful_stop	1.45	n/a	n/a	right	male
345.2568	0.5084	go	n/a	2.107	incorrect	left	female
349.765	0.5084	go	n/a	2.261	correct	right	female
352.7816	0.5083	go	n/a	2.447	correct	right	female
356.7898	0.5084	go	n/a	1.963	correct	right	female
361.7897	0.5083	unsuccesful_stop	1.5	1.656	correct	right	female
364.8063	0.5083	unsuccesful_stop	1.55	1.75	correct	left	male
369.3061	0.5084	go	n/a	2.348	correct	right	female
373.8143	0.5084	go	n/a	2.483	correct	right	female
377.8226	0.5083	go	n/a	2.397	correct	right	female
384.8473	0.5084	succesful_stop	1.6	n/a	n/a	right	male
389.8472	0.5083	go	n/a	2.035	correct	right	female
393.3554	0.5083	go	n/a	3.091	correct	left	male
397.8636	0.5083	go	n/a	2.854	correct	right	female
401.3719	0.5083	go	n/a	2.316	correct	right	female
404.8884	0.5083	go	n/a	2.825	correct	right	female
408.8966	0.5084	go	n/a	2.554	correct	left	male
417.9047	0.5083	go	n/a	2.78	correct	left	male
421.9129	0.5083	go	n/a	2.583	correct	left	male
424.9295	0.5083	go	n/a	2.504	incorrect	left	female
429.9294	0.5083	go	n/a	1.202	correct	left	male
434.4376	0.5083	go	n/a	1.151	correct	left	male
437.9458	0.5083	go	n/a	2.706	correct	right	female
