onset	duration	trial_type	stop_signal_delay	response_time	response_accuracy	response_hand	sex
1.5421	0.5083	unsuccesful_stop	0.2	0.67	correct	left	male
5.0503	0.5084	go	n/a	0.594	correct	left	male
8.5586	0.5083	succesful_stop	0.2	n/a	n/a	right	male
12.5668	0.5083	go	n/a	0.477	correct	left	male
17.575	0.5083	succesful_stop	0.25	n/a	n/a	right	female
21.0833	0.5083	go	n/a	n/a	miss	right	female
31.108	0.5083	go	n/a	0.817	correct	left	male
34.6162	0.5083	go	n/a	0.72	correct	left	male
42.141	0.5083	go	n/a	0.625	correct	left	male
46.1493	0.5083	go	n/a	0.467	incorrect	left	female
50.6491	0.5084	succesful_stop	0.3	n/a	n/a	right	female
55.1574	0.5083	succesful_stop	0.35	n/a	n/a	right	female
59.1656	0.5083	succesful_stop	0.4	n/a	n/a	right	female
63.1738	0.5083	succesful_stop	0.45	n/a	n/a	right	female
67.182	0.5083	succesful_stop	0.5	n/a	n/a	right	male
71.6902	0.5084	succesful_stop	0.55	n/a	n/a	right	female
74.2068	0.5084	go	n/a	0.812	correct	left	male
78.2151	0.5083	go	n/a	0.863	correct	left	male
82.715	0.5083	succesful_stop	0.6	n/a	n/a	right	female
86.2315	0.5083	go	n/a	0.897	correct	left	male
90.7314	0.5083	go	n/a	0.824	correct	left	male
99.2479	0.5083	go	n/a	n/a	miss	right	female
105.7643	0.5084	succesful_stop	0.65	n/a	n/a	right	female
109.2726	0.5083	succesful_stop	0.7	n/a	n/a	right	female
113.7808	0.5083	succesful_stop	0.75	n/a	n/a	right	female
117.789	0.5083	go	n/a	n/a	miss	right	female
126.8138	0.5083	go	n/a	0.88	correct	left	male
130.3304	0.5083	unsuccesful_stop	0.8	0.888	correct	left	male
134.3386	0.5083	go	n/a	n/a	miss	right	female
141.8467	0.5083	go	n/a	0.902	correct	left	male
144.3633	0.5083	go	n/a	0.84	correct	left	male
148.8632	0.5083	go	n/a	n/a	miss	right	female
155.8797	0.5083	go	n/a	0.88	correct	left	male
159.3879	0.5083	go	n/a	0.804	correct	left	male
163.3962	0.5083	go	n/a	0.745	correct	left	male
171.9126	0.5083	go	n/a	0.845	correct	left	male
175.9208	0.5083	go	n/a	0.709	correct	left	male
183.9373	0.5083	unsuccesful_stop	0.85	0.731	correct	left	male
186.9455	0.5084	succesful_stop	0.9	n/a	n/a	right	female
190.4621	0.5083	succesful_stop	0.95	n/a	n/a	right	female
194.4703	0.5084	go	n/a	0.978	correct	left	male
203.9784	0.5083	go	n/a	n/a	miss	right	female
208.9949	0.5084	unsuccesful_stop	1.0	0.904	correct	left	male
214.0032	0.5083	go	n/a	1.019	correct	left	male
217.0114	0.5083	unsuccesful_stop	1.05	0.984	correct	left	male
221.5196	0.5083	go	n/a	n/a	miss	right	female
228.0361	0.5083	go	n/a	n/a	miss	right	female
233.0526	0.5084	unsuccesful_stop	1.1	1.086	correct	left	male
241.0691	0.5083	go	n/a	n/a	miss	right	female
247.5856	0.5083	go	n/a	1.168	correct	left	male
250.6022	0.5083	unsuccesful_stop	1.15	1.249	incorrect	left	female
255.6021	0.5083	go	n/a	n/a	miss	right	female
260.6269	0.5083	unsuccesful_stop	1.2	0.931	correct	left	male
264.6351	0.5084	succesful_stop	1.25	n/a	n/a	right	female
269.635	0.5083	unsuccesful_stop	1.3	0.771	correct	left	male
272.6516	0.5083	go	n/a	n/a	miss	right	female
280.1597	0.5084	unsuccesful_stop	1.35	0.939	correct	left	male
284.168	0.5083	unsuccesful_stop	1.4	0.963	incorrect	left	female
287.1762	0.5083	succesful_stop	1.45	n/a	n/a	right	female
290.6928	0.5083	succesful_stop	1.5	n/a	n/a	right	male
294.701	0.5083	succesful_stop	1.55	n/a	n/a	right	female
298.7092	0.5084	go	n/a	n/a	miss	right	female
304.7257	0.5084	go	n/a	1.089	correct	left	male
309.7256	0.5083	unsuccesful_stop	1.6	1.1	correct	left	male
313.7338	0.5084	unsuccesful_stop	1.65	1.237	correct	left	male
317.7421	0.5083	succesful_stop	1.7	n/a	n/a	right	female
322.2503	0.5083	unsuccesful_stop	1.75	1.753	correct	left	male
325.7585	0.5083	succesful_stop	1.8	n/a	n/a	right	female
329.7668	0.5083	go	n/a	n/a	miss	right	female
335.2833	0.5083	go	n/a	1.335	incorrect	left	female
339.7915	0.5083	go	n/a	1.643	correct	left	male
344.2997	0.5083	go	n/a	n/a	miss	right	female
350.3162	0.5083	go	n/a	n/a	miss	right	female
355.8327	0.5083	go	n/a	1.613	correct	left	male
360.3409	0.5084	go	n/a	1.592	correct	left	male
363.3492	0.5083	go	n/a	n/a	miss	right	female
368.874	0.5084	succesful_stop	1.85	n/a	n/a	right	female
372.8823	0.5083	go	n/a	n/a	miss	right	female
378.8988	0.5083	go	n/a	1.833	correct	left	male
382.907	0.5083	unsuccesful_stop	1.9	1.435	correct	left	male
386.9152	0.5084	go	n/a	n/a	miss	right	female
393.9234	0.5083	go	n/a	1.705	correct	left	male
396.94	0.5083	go	n/a	n/a	miss	right	female
403.9481	0.5083	unsuccesful_stop	1.95	1.44	correct	left	male
406.9647	0.5083	go	n/a	n/a	miss	right	female
413.4729	0.5083	unsuccesful_stop	2.0	1.759	correct	left	male
416.9894	0.5084	go	n/a	2.669	incorrect	left	female
421.9893	0.5083	go	n/a	2.465	correct	left	male
425.9975	0.5084	go	n/a	n/a	miss	right	female
431.0224	0.5083	unsuccesful_stop	2.05	2.114	correct	left	male
440.0305	0.5083	go	n/a	2.862	correct	left	male
444.5387	0.5083	go	n/a	n/a	miss	right	male
449.0636	0.5083	go	n/a	n/a	miss	right	female
455.5718	0.5083	go	n/a	n/a	miss	right	female
461.5883	0.5083	go	n/a	n/a	miss	right	female
467.6048	0.5083	succesful_stop	2.1	n/a	n/a	right	female
472.613	0.5083	go	n/a	1.723	correct	left	male
475.6212	0.5083	go	n/a	2.198	correct	left	male
479.1378	0.5083	go	n/a	n/a	miss	right	female
485.1543	0.5083	succesful_stop	2.15	n/a	n/a	right	female
