onset	duration	trial_type	stop_signal_delay	response_time	response_accuracy	response_hand	sex
0.5522	0.5083	go	n/a	0.657	correct	left	male
5.0604	0.5083	go	n/a	0.785	incorrect	left	female
8.5687	0.5083	go	n/a	0.487	correct	right	female
12.577	0.5083	go	n/a	0.722	correct	right	female
16.0936	0.5083	go	n/a	0.58	correct	right	female
21.5935	0.5083	succesful_stop	0.2	n/a	n/a	right	female
24.6017	0.5084	go	n/a	0.578	correct	left	male
28.61	0.5083	succesful_stop	0.25	n/a	n/a	right	female
32.1266	0.5083	go	n/a	0.84	correct	left	male
37.1265	0.5084	succesful_stop	0.3	n/a	n/a	right	male
40.1432	0.5083	go	n/a	0.768	correct	right	female
44.6431	0.5083	succesful_stop	0.35	n/a	n/a	right	male
49.6513	0.5084	succesful_stop	0.4	n/a	n/a	right	female
53.6596	0.5083	go	n/a	0.9	correct	left	male
57.1679	0.5083	succesful_stop	0.45	n/a	n/a	right	male
61.6761	0.5083	go	n/a	0.833	correct	left	male
65.6844	0.5083	go	n/a	0.826	correct	right	female
69.1927	0.5083	succesful_stop	0.5	n/a	n/a	right	male
72.7009	0.5084	unsuccesful_stop	0.55	0.733	correct	left	male
77.2092	0.5083	go	n/a	0.787	correct	left	male
80.7175	0.5083	go	n/a	0.832	correct	left	male
85.7257	0.5083	unsuccesful_stop	0.6	0.817	correct	right	female
93.2423	0.5083	unsuccesful_stop	0.65	0.814	correct	left	male
96.7505	0.5084	go	n/a	0.869	correct	left	male
100.2671	0.5084	succesful_stop	0.7	n/a	n/a	right	female
104.7671	0.5083	go	n/a	1.193	incorrect	left	female
108.7753	0.5083	go	n/a	1.142	correct	right	female
112.2919	0.5084	go	n/a	1.273	correct	right	female
117.7918	0.5084	go	n/a	0.936	correct	left	male
120.8001	0.5083	go	n/a	0.975	correct	left	male
124.3167	0.5084	go	n/a	0.983	correct	right	female
129.3166	0.5084	unsuccesful_stop	0.75	0.94	correct	right	female
132.3333	0.5083	succesful_stop	0.8	n/a	n/a	right	female
137.3332	0.5083	go	n/a	0.981	correct	left	male
145.8497	0.5083	go	n/a	1.158	correct	left	male
148.3663	0.5083	go	n/a	1.04	correct	left	male
153.3662	0.5084	unsuccesful_stop	0.85	0.929	correct	left	male
157.8745	0.5083	go	n/a	1.363	correct	right	female
161.3828	0.5083	go	n/a	1.205	correct	right	female
164.3994	0.5083	go	n/a	1.06	correct	left	male
172.4159	0.5083	unsuccesful_stop	0.9	1.066	correct	left	male
176.9158	0.5084	succesful_stop	0.95	n/a	n/a	right	male
181.9241	0.5083	go	n/a	1.283	correct	right	female
184.4407	0.5083	go	n/a	1.217	correct	right	female
188.9406	0.5084	unsuccesful_stop	1.0	1.007	correct	right	female
192.4572	0.5084	go	n/a	1.344	correct	right	female
196.4655	0.5083	go	n/a	1.257	incorrect	left	female
200.4738	0.5083	go	n/a	1.185	correct	left	male
205.9737	0.5083	unsuccesful_stop	1.05	1.233	correct	left	male
208.982	0.5083	go	n/a	1.491	correct	right	female
212.9902	0.5083	go	n/a	1.436	correct	right	female
217.4985	0.5083	go	n/a	1.427	correct	left	male
221.0067	0.5084	go	n/a	1.267	correct	left	male
224.5234	0.5083	go	n/a	1.199	correct	left	male
229.0233	0.5083	go	n/a	1.537	correct	left	male
234.0315	0.5084	succesful_stop	1.1	n/a	n/a	right	male
236.5482	0.5083	go	n/a	1.688	correct	left	male
242.0481	0.5083	go	n/a	1.42	correct	right	female
245.5563	0.5084	go	n/a	1.347	correct	left	male
249.0646	0.5083	unsuccesful_stop	1.15	1.207	correct	right	female
254.0729	0.5083	go	n/a	1.426	correct	left	male
257.5811	0.5084	succesful_stop	1.2	n/a	n/a	right	male
260.5977	0.5084	succesful_stop	1.25	n/a	n/a	right	female
265.5977	0.5083	unsuccesful_stop	1.3	1.333	correct	right	female
269.6059	0.5083	succesful_stop	1.35	n/a	n/a	right	male
273.6142	0.5083	go	n/a	1.787	correct	left	male
277.6225	0.5083	go	n/a	1.461	correct	right	female
281.6307	0.5083	succesful_stop	1.4	n/a	n/a	right	female
289.1473	0.5083	succesful_stop	1.45	n/a	n/a	right	female
297.1638	0.5083	go	n/a	1.322	correct	right	female
301.672	0.5084	go	n/a	1.666	correct	left	male
305.1803	0.5083	go	n/a	1.476	correct	right	female
309.1886	0.5083	go	n/a	1.728	correct	left	male
312.7052	0.5083	go	n/a	1.686	correct	left	male
321.7134	0.5083	go	n/a	1.8	correct	right	female
325.7216	0.5084	go	n/a	1.726	correct	left	male
330.2299	0.5083	unsuccesful_stop	1.5	1.564	correct	left	male
333.2382	0.5083	go	n/a	2.082	correct	left	male
337.2464	0.5084	go	n/a	2.184	correct	left	male
342.2547	0.5083	succesful_stop	1.55	n/a	n/a	right	female
344.7713	0.5083	go	n/a	2.098	correct	left	male
350.2712	0.5083	succesful_stop	1.6	n/a	n/a	right	female
358.2877	0.5084	go	n/a	1.936	correct	right	female
362.296	0.5083	unsuccesful_stop	1.65	1.765	correct	right	female
365.8043	0.5083	go	n/a	1.979	correct	left	male
369.3126	0.5083	go	n/a	2.247	correct	left	male
374.3208	0.5083	go	n/a	1.864	correct	left	male
377.8291	0.5083	go	n/a	1.714	correct	left	male
380.8457	0.5083	unsuccesful_stop	1.7	1.805	correct	left	male
389.8539	0.5083	go	n/a	1.958	correct	left	male
393.3622	0.5083	go	n/a	1.968	correct	right	female
397.8704	0.5083	go	n/a	2.048	correct	right	female
401.8787	0.5083	succesful_stop	1.75	n/a	n/a	right	female
404.8953	0.5083	unsuccesful_stop	1.8	1.743	correct	left	male
408.9036	0.5083	unsuccesful_stop	1.85	1.943	correct	right	female
414.4035	0.5083	go	n/a	2.474	correct	right	female
418.4117	0.5084	go	n/a	2.251	correct	right	female
424.9366	0.5083	unsuccesful_stop	1.9	1.46	correct	left	male
434.4448	0.5083	unsuccesful_stop	1.95	1.81	correct	left	male
438.4531	0.5083	go	n/a	2.06	correct	right	female
