onset	duration	trial_type	stop_signal_delay	response_time	response_accuracy	response_hand	sex
1.5409	0.5083	go	n/a	0.845	correct	left	male
4.5492	0.5083	go	n/a	0.598	correct	right	female
8.5574	0.5083	go	n/a	0.478	correct	right	female
13.0656	0.5083	unsuccesful_stop	0.2	0.372	incorrect	left	female
17.5738	0.5083	go	n/a	0.551	correct	right	female
21.0821	0.5083	unsuccesful_stop	0.2	0.451	correct	right	female
24.0986	0.5084	go	n/a	0.992	correct	left	male
28.5985	0.5084	go	n/a	0.525	correct	right	female
33.1067	0.5084	go	n/a	0.437	correct	left	male
36.1233	0.5083	go	n/a	0.618	correct	left	male
41.6232	0.5083	succesful_stop	0.15	n/a	n/a	right	male
45.6314	0.5083	go	n/a	0.477	correct	right	female
49.6396	0.5084	go	n/a	0.421	correct	right	female
53.1479	0.5083	succesful_stop	0.15	n/a	n/a	right	female
56.1645	0.5083	succesful_stop	0.2	n/a	n/a	right	female
60.6643	0.5084	go	n/a	0.5	correct	left	male
65.1726	0.5083	go	n/a	0.467	correct	right	female
68.6808	0.5083	go	n/a	0.493	correct	right	female
73.189	0.5083	go	n/a	0.412	incorrect	right	male
77.6972	0.5083	unsuccesful_stop	0.25	0.633	correct	right	female
80.2138	0.5083	go	n/a	0.595	correct	right	female
84.222	0.5084	go	n/a	0.581	correct	left	male
88.2303	0.5083	go	n/a	0.621	correct	left	male
92.2385	0.5083	go	n/a	0.554	correct	right	female
97.7383	0.5084	go	n/a	0.468	correct	left	male
101.7466	0.5083	go	n/a	0.594	incorrect	left	female
109.263	0.5084	go	n/a	0.489	correct	right	female
113.2713	0.5083	go	n/a	0.594	correct	right	female
117.2795	0.5083	go	n/a	0.437	correct	right	female
121.7877	0.5083	succesful_stop	0.3	n/a	n/a	right	male
124.796	0.5083	unsuccesful_stop	0.35	0.547	correct	right	female
128.8042	0.5083	succesful_stop	0.4	n/a	n/a	right	female
133.8124	0.5083	go	n/a	0.515	correct	right	female
137.3206	0.5083	unsuccesful_stop	0.45	0.565	correct	left	male
141.3289	0.5083	go	n/a	0.511	incorrect	right	male
145.8371	0.5083	unsuccesful_stop	0.5	0.57	correct	right	female
149.3453	0.5083	unsuccesful_stop	0.5	0.54	correct	left	male
152.8535	0.5084	go	n/a	0.843	correct	right	female
156.8618	0.5083	go	n/a	0.647	correct	right	female
164.8782	0.5083	unsuccesful_stop	0.45	0.474	correct	left	male
169.3864	0.5084	go	n/a	0.527	correct	left	male
173.3947	0.5083	go	n/a	0.859	correct	right	female
176.4112	0.5084	go	n/a	0.552	correct	right	female
180.9111	0.5084	go	n/a	0.487	correct	right	female
184.4277	0.5083	unsuccesful_stop	0.4	0.367	incorrect	right	male
189.9276	0.5083	go	n/a	0.483	correct	left	male
193.9358	0.5083	go	n/a	0.458	correct	left	male
197.444	0.5083	go	n/a	0.376	correct	left	male
204.9605	0.5083	unsuccesful_stop	0.35	0.731	correct	left	male
208.9687	0.5083	succesful_stop	0.3	n/a	n/a	right	male
212.4853	0.5083	go	n/a	0.691	correct	left	male
220.9934	0.5083	succesful_stop	0.25	n/a	n/a	right	female
225.0016	0.5083	succesful_stop	0.2	n/a	n/a	right	female
229.0098	0.5084	go	n/a	0.533	correct	left	male
238.0263	0.5083	go	n/a	0.397	correct	left	male
240.5429	0.5083	succesful_stop	0.15	n/a	n/a	right	female
245.5427	0.5084	succesful_stop	0.15	n/a	n/a	right	female
249.551	0.5083	go	n/a	0.941	correct	left	male
253.5592	0.5083	succesful_stop	0.2	n/a	n/a	right	female
256.5758	0.5083	succesful_stop	0.25	n/a	n/a	right	male
261.5756	0.5084	succesful_stop	0.3	n/a	n/a	right	male
266.0838	0.5084	go	n/a	0.674	correct	left	male
268.6004	0.5084	succesful_stop	0.35	n/a	n/a	right	female
273.6003	0.5083	go	n/a	0.658	correct	right	female
276.6169	0.5083	go	n/a	0.552	correct	left	male
285.125	0.5083	unsuccesful_stop	0.4	0.623	correct	left	male
292.6498	0.5083	go	n/a	1.274	correct	right	female
297.6497	0.5083	go	n/a	0.594	correct	left	male
301.1579	0.5083	go	n/a	0.514	correct	right	female
305.6661	0.5083	go	n/a	0.593	correct	left	male
309.6744	0.5083	go	n/a	0.521	correct	right	female
312.6909	0.5084	go	n/a	0.517	correct	left	male
318.1908	0.5083	go	n/a	0.511	correct	left	male
321.699	0.5083	go	n/a	0.617	correct	left	male
324.7156	0.5083	go	n/a	0.518	correct	left	male
329.2155	0.5083	unsuccesful_stop	0.45	0.441	incorrect	left	female
332.7321	0.5083	go	n/a	0.579	correct	left	male
337.7319	0.5084	unsuccesful_stop	0.5	0.744	correct	left	male
340.7485	0.5083	go	n/a	0.884	correct	left	male
345.7484	0.5083	go	n/a	0.5	correct	right	female
348.765	0.5083	unsuccesful_stop	0.55	0.682	correct	left	male
356.7814	0.5083	go	n/a	0.64	correct	right	female
360.7897	0.5083	go	n/a	0.599	correct	right	female
366.2895	0.5083	go	n/a	0.581	correct	left	male
368.8061	0.5083	go	n/a	0.484	incorrect	left	female
373.306	0.5083	go	n/a	0.451	correct	left	male
376.8226	0.5083	unsuccesful_stop	0.6	0.394	incorrect	right	male
381.3224	0.5084	go	n/a	0.703	correct	right	female
385.3307	0.5083	go	n/a	0.537	correct	left	male
389.3389	0.5083	go	n/a	0.501	correct	left	male
396.8637	0.5083	go	n/a	0.512	correct	left	male
402.3635	0.5084	unsuccesful_stop	0.6	0.603	correct	right	female
404.8801	0.5084	go	n/a	0.831	correct	right	female
410.38	0.5083	go	n/a	0.514	correct	right	female
414.3882	0.5083	go	n/a	0.369	correct	right	female
422.4047	0.5083	unsuccesful_stop	0.55	0.457	correct	left	male
425.4129	0.5083	go	n/a	0.389	incorrect	left	female
429.4211	0.5084	go	n/a	0.493	correct	right	female
436.9459	0.5084	go	n/a	0.385	correct	left	male
445.954	0.5084	go	n/a	0.537	correct	left	male
