onset	duration	trial_type	stop_signal_delay	response_time	response_accuracy	response_hand	sex
0.5598	0.5084	succesful_stop	0.2	n/a	n/a	right	male
5.0681	0.5083	succesful_stop	0.25	n/a	n/a	right	male
8.5764	0.5083	succesful_stop	0.3	n/a	n/a	right	female
12.093	0.5083	go	n/a	0.775	correct	left	male
16.1013	0.5083	go	n/a	0.708	correct	right	female
21.1012	0.5083	go	n/a	0.513	correct	left	male
24.6094	0.5084	go	n/a	0.808	correct	left	male
28.126	0.5084	go	n/a	0.48	correct	right	female
33.626	0.5083	go	n/a	0.645	correct	left	male
36.6342	0.5084	go	n/a	0.849	correct	left	male
41.6425	0.5083	go	n/a	0.751	correct	right	female
49.159	0.5083	go	n/a	0.709	correct	right	female
52.6673	0.5083	go	n/a	0.651	correct	right	female
57.1756	0.5083	succesful_stop	0.35	n/a	n/a	right	male
61.1838	0.5083	go	n/a	0.916	correct	left	male
64.2004	0.5084	go	n/a	0.682	correct	left	male
68.2087	0.5083	go	n/a	0.664	correct	right	female
73.2086	0.5083	go	n/a	0.608	correct	right	female
77.2169	0.5083	go	n/a	0.766	correct	right	female
84.2418	0.5083	go	n/a	0.868	correct	right	female
89.2417	0.5083	go	n/a	0.8	correct	right	female
93.2499	0.5084	succesful_stop	0.4	n/a	n/a	right	female
96.7582	0.5083	succesful_stop	0.45	n/a	n/a	right	female
101.7665	0.5083	succesful_stop	0.5	n/a	n/a	right	female
104.2831	0.5083	succesful_stop	0.55	n/a	n/a	right	female
109.783	0.5083	go	n/a	0.639	correct	right	female
113.7913	0.5083	go	n/a	0.742	correct	right	female
116.3079	0.5083	go	n/a	0.755	correct	left	male
120.8078	0.5083	go	n/a	0.762	correct	right	female
128.3327	0.5083	succesful_stop	0.6	n/a	n/a	right	female
133.8326	0.5083	go	n/a	0.792	correct	left	male
136.8409	0.5083	unsuccesful_stop	0.65	0.79	correct	right	female
141.3491	0.5084	unsuccesful_stop	0.7	0.828	correct	right	female
144.8574	0.5083	go	n/a	0.885	correct	right	female
148.8657	0.5083	go	n/a	0.925	correct	right	female
153.8739	0.5083	go	n/a	0.84	correct	left	male
156.3905	0.5084	unsuccesful_stop	0.75	0.811	correct	left	male
160.3988	0.5083	go	n/a	0.924	correct	right	female
165.3987	0.5084	go	n/a	0.806	correct	left	male
169.407	0.5083	go	n/a	0.863	correct	right	female
172.4236	0.5083	go	n/a	0.898	correct	left	male
176.4319	0.5083	go	n/a	1.004	correct	right	female
180.9318	0.5083	go	n/a	0.773	correct	right	female
188.9483	0.5084	unsuccesful_stop	0.8	0.946	correct	right	female
193.9566	0.5083	go	n/a	0.959	correct	left	male
196.4732	0.5083	go	n/a	0.897	correct	right	female
201.4731	0.5083	unsuccesful_stop	0.85	0.794	correct	left	male
204.9814	0.5083	go	n/a	0.921	correct	right	female
209.4896	0.5084	unsuccesful_stop	0.9	0.862	correct	left	male
212.5063	0.5083	unsuccesful_stop	0.95	1.032	correct	right	female
218.0062	0.5083	go	n/a	1.301	correct	right	female
222.0144	0.5084	go	n/a	0.985	correct	left	male
224.5311	0.5083	go	n/a	1.253	correct	right	female
229.531	0.5083	go	n/a	1.006	correct	right	female
234.0392	0.5084	unsuccesful_stop	1.0	0.95	correct	left	male
236.5559	0.5083	go	n/a	1.241	correct	right	female
241.0558	0.5083	go	n/a	0.812	correct	right	female
245.0641	0.5083	unsuccesful_stop	1.05	0.958	correct	left	male
253.5806	0.5083	go	n/a	1.081	correct	left	male
256.5972	0.5083	unsuccesful_stop	1.1	0.906	correct	right	female
260.6055	0.5083	go	n/a	1.201	correct	right	female
266.1054	0.5083	go	n/a	1.045	correct	left	male
269.6136	0.5084	go	n/a	1.681	correct	left	male
272.6302	0.5084	go	n/a	1.734	correct	left	male
281.1384	0.5084	go	n/a	1.096	correct	right	female
286.1467	0.5083	go	n/a	0.77	correct	right	female
294.1632	0.5083	go	n/a	1.242	correct	left	male
296.6798	0.5084	go	n/a	1.21	correct	left	male
301.1798	0.5083	go	n/a	1.128	correct	left	male
308.7046	0.5084	unsuccesful_stop	1.1	0.772	correct	left	male
313.2046	0.5083	go	n/a	1.15	correct	left	male
317.2128	0.5084	succesful_stop	1.05	n/a	n/a	right	female
321.7211	0.5083	succesful_stop	1.05	n/a	n/a	right	female
325.7293	0.5084	go	n/a	1.053	correct	left	male
328.746	0.5083	go	n/a	1.332	correct	right	female
334.2459	0.5083	go	n/a	1.185	correct	left	male
342.2624	0.5083	unsuccesful_stop	1.1	1.141	correct	left	male
346.2707	0.5083	go	n/a	1.523	correct	right	female
348.7873	0.5083	succesful_stop	1.1	n/a	n/a	right	female
353.2872	0.5083	go	n/a	1.537	correct	left	male
357.7955	0.5083	go	n/a	2.106	correct	right	female
362.3037	0.5084	unsuccesful_stop	1.15	1.175	correct	right	female
365.812	0.5083	go	n/a	1.595	correct	right	female
369.3203	0.5083	succesful_stop	1.15	n/a	n/a	right	male
373.8285	0.5084	go	n/a	1.681	correct	left	male
377.8368	0.5083	go	n/a	1.676	correct	left	male
381.8451	0.5083	go	n/a	1.938	correct	left	male
389.8616	0.5083	go	n/a	1.289	correct	right	female
392.8782	0.5083	go	n/a	1.322	correct	left	male
397.3781	0.5084	go	n/a	1.23	correct	left	male
402.3864	0.5083	go	n/a	0.827	correct	left	male
405.8947	0.5083	go	n/a	1.324	correct	left	male
408.9113	0.5083	go	n/a	1.805	correct	left	male
414.4112	0.5083	unsuccesful_stop	1.2	1.34	correct	right	female
416.9278	0.5083	go	n/a	0.923	correct	left	male
420.9361	0.5083	go	n/a	1.278	correct	left	male
429.9442	0.5084	go	n/a	0.92	correct	right	female
434.4525	0.5083	go	n/a	1.009	correct	right	female
436.9691	0.5084	go	n/a	1.418	correct	right	female
440.9774	0.5083	unsuccesful_stop	1.2	1.233	correct	left	male
