onset	duration	trial_type	stop_signal_delay	response_time	response_accuracy	response_hand	sex
0.0727	0.5084	unsuccesful_stop	0.2	0.959	correct	right	female
5.5726	0.5083	succesful_stop	0.2	n/a	n/a	right	female
8.5809	0.5083	succesful_stop	0.25	n/a	n/a	right	male
13.0891	0.5083	go	n/a	0.599	correct	left	male
17.5973	0.5084	succesful_stop	0.3	n/a	n/a	right	female
21.1056	0.5083	go	n/a	0.702	correct	left	male
24.1222	0.5083	go	n/a	0.69	correct	right	female
29.6221	0.5083	go	n/a	0.725	correct	left	male
37.6385	0.5084	succesful_stop	0.35	n/a	n/a	right	female
40.1551	0.5084	go	n/a	0.609	correct	left	male
44.1634	0.5083	succesful_stop	0.4	n/a	n/a	right	male
49.6633	0.5083	go	n/a	0.676	correct	left	male
52.6715	0.5083	succesful_stop	0.45	n/a	n/a	right	male
57.6797	0.5084	go	n/a	1.049	correct	right	female
60.1964	0.5083	succesful_stop	0.5	n/a	n/a	right	male
64.2046	0.5083	go	n/a	0.81	correct	left	male
68.2128	0.5084	go	n/a	0.863	correct	right	female
72.7127	0.5084	unsuccesful_stop	0.55	0.778	correct	right	female
76.721	0.5083	go	n/a	1.003	correct	left	male
80.2376	0.5083	go	n/a	0.951	correct	right	female
84.2458	0.5083	go	n/a	1.694	correct	right	female
88.7457	0.5083	go	n/a	1.022	correct	left	male
93.2539	0.5083	succesful_stop	0.6	n/a	n/a	right	male
97.2622	0.5083	unsuccesful_stop	0.65	1.083	correct	left	male
100.7704	0.5083	go	n/a	0.9	correct	right	female
104.287	0.5083	succesful_stop	0.7	n/a	n/a	right	male
109.2869	0.5083	go	n/a	1.204	correct	right	female
113.2951	0.5084	go	n/a	1.848	correct	right	female
116.8034	0.5083	succesful_stop	0.75	n/a	n/a	right	female
120.32	0.5083	go	n/a	0.753	correct	left	male
125.3199	0.5083	go	n/a	1.159	correct	right	female
129.3281	0.5083	unsuccesful_stop	0.8	0.752	correct	right	female
133.8363	0.5084	succesful_stop	0.85	n/a	n/a	right	male
137.8446	0.5083	go	n/a	1.04	correct	right	female
140.8528	0.5084	go	n/a	1.097	correct	right	female
148.8693	0.5083	go	n/a	0.909	correct	right	female
152.3859	0.5083	succesful_stop	0.9	n/a	n/a	right	female
156.8858	0.5083	go	n/a	1.031	correct	left	male
161.894	0.5083	unsuccesful_stop	0.95	1.488	correct	left	male
164.4106	0.5083	go	n/a	1.906	correct	left	male
168.9105	0.5083	go	n/a	1.175	correct	left	male
172.4271	0.5083	succesful_stop	1.0	n/a	n/a	right	male
176.4353	0.5084	go	n/a	1.407	incorrect	right	male
181.4352	0.5084	unsuccesful_stop	1.05	1.63	correct	right	female
185.9435	0.5083	unsuccesful_stop	1.1	1.753	correct	right	female
189.9517	0.5083	go	n/a	1.704	correct	left	male
192.4683	0.5083	go	n/a	1.577	correct	left	male
197.4682	0.5083	go	n/a	1.249	correct	right	female
201.4764	0.5084	go	n/a	1.311	correct	left	male
205.9847	0.5083	unsuccesful_stop	1.15	1.114	correct	left	male
208.9929	0.5084	unsuccesful_stop	1.2	1.337	correct	right	female
214.0011	0.5084	go	n/a	1.226	correct	left	male
217.5094	0.5083	unsuccesful_stop	1.25	0.971	correct	right	female
221.5176	0.5084	go	n/a	0.824	correct	left	male
225.5259	0.5083	go	n/a	0.707	correct	left	male
228.5425	0.5083	go	n/a	0.666	correct	left	male
237.5506	0.5083	unsuccesful_stop	1.3	0.816	correct	right	female
242.0588	0.5084	unsuccesful_stop	1.35	0.867	correct	left	male
245.0671	0.5083	go	n/a	0.848	correct	right	female
250.0753	0.5083	go	n/a	0.708	correct	left	male
254.0836	0.5083	go	n/a	0.511	correct	left	male
257.0918	0.5083	unsuccesful_stop	1.4	0.746	correct	right	female
262.1	0.5084	go	n/a	0.813	correct	right	female
266.1083	0.5083	go	n/a	0.728	correct	left	male
270.1165	0.5083	go	n/a	0.68	correct	left	male
273.1248	0.5083	go	n/a	n/a	miss	right	female
278.6497	0.5083	go	n/a	1.701	incorrect	right	male
283.6495	0.5084	go	n/a	0.918	correct	right	female
287.6578	0.5083	go	n/a	0.578	correct	left	male
292.166	0.5083	go	n/a	0.567	correct	right	female
300.1825	0.5083	go	n/a	1.119	correct	right	female
302.6991	0.5083	unsuccesful_stop	1.45	1.313	correct	right	female
307.699	0.5083	unsuccesful_stop	1.45	1.243	correct	right	female
310.7156	0.5083	go	n/a	0.589	correct	right	female
314.7238	0.5083	go	n/a	1.0	correct	right	female
319.2237	0.5083	go	n/a	0.913	incorrect	left	female
324.2319	0.5084	go	n/a	0.754	correct	right	female
330.7568	0.5083	go	n/a	0.832	correct	right	female
334.765	0.5083	go	n/a	0.933	correct	left	male
339.7649	0.5083	go	n/a	0.657	correct	right	female
344.2731	0.5084	go	n/a	0.982	correct	left	male
348.2814	0.5083	unsuccesful_stop	1.4	1.201	correct	left	male
350.798	0.5083	go	n/a	n/a	miss	right	male
357.8062	0.5083	go	n/a	0.79	correct	right	female
361.8144	0.5083	go	n/a	0.59	correct	right	female
365.3227	0.5083	go	n/a	0.716	correct	left	male
372.8475	0.5083	go	n/a	0.564	correct	right	female
377.8474	0.5083	go	n/a	0.637	correct	right	female
385.3639	0.5083	unsuccesful_stop	1.35	0.554	correct	left	male
388.8804	0.5084	go	n/a	0.663	correct	left	male
398.3886	0.5083	go	n/a	0.51	correct	left	male
401.8968	0.5083	unsuccesful_stop	1.3	0.978	correct	right	female
404.9134	0.5083	unsuccesful_stop	1.25	0.684	correct	right	female
410.4133	0.5083	go	n/a	1.638	correct	right	female
413.9215	0.5084	unsuccesful_stop	1.2	1.139	correct	left	male
416.9381	0.5084	succesful_stop	1.15	n/a	n/a	right	male
425.9463	0.5083	unsuccesful_stop	1.1	1.211	correct	left	male
430.4545	0.5083	go	n/a	1.776	correct	right	female
433.4628	0.5083	succesful_stop	1.05	n/a	n/a	right	male
437.471	0.5083	succesful_stop	1.0	n/a	n/a	right	female
